Subject,Block,Trial,StimType,StimCategory,Stimulus,ACC,RESP,Sound,RTTest4,1,1,standard,PIX,ba_base_pix.avi,1,j,BA,1.924Test4,1,2,oddball,PIX,ba_redu_pix.avi,0,j,BA,1.905Test4,1,3,oddball,PIX,ba_redu_pix.avi,1,f,A,1.507Test4,1,4,oddball,PIX,ba_redu_pix.avi,1,f,A,1.899Test4,1,5,oddball,PIX,ba_redu_pix.avi,0,j,BA,1.33Test4,1,6,standard,PIX,ba_base_pix.avi,1,j,BA,1.542Test4,1,7,standard,PIX,ba_base_pix.avi,1,j,BA,1.526Test4,1,8,standard,PIX,ba_base_pix.avi,1,j,BA,1.515Test4,1,9,standard,PIX,ba_base_pix.avi,1,j,BA,1.518Test4,1,10,standard,PIX,ba_base_pix.avi,1,j,BA,1.897Test4,1,11,oddball,PIX,ba_redu_pix.avi,0,j,BA,1.896Test4,1,12,standard,PIX,ba_base_pix.avi,1,j,BA,1.478Test4,1,13,standard,PIX,ba_base_pix.avi,1,j,BA,1.492Test4,1,14,oddball,PIX,ba_redu_pix.avi,1,f,A,1.595Test4,1,15,standard,PIX,ba_base_pix.avi,1,j,BA,1.539Test4,1,16,oddball,PIX,ba_redu_pix.avi,1,f,A,1.905Test4,1,17,standard,PIX,ba_base_pix.avi,1,j,BA,1.509Test4,1,18,oddball,PIX,ba_redu_pix.avi,1,f,A,1.541Test4,1,19,standard,PIX,ba_base_pix.avi,1,j,BA,1.338Test4,1,20,oddball,PIX,ba_redu_pix.avi,1,f,A,1.904Test4,1,21,standard,PIX,ba_base_pix.avi,1,j,BA,1.442Test4,1,22,standard,PIX,ba_base_pix.avi,1,j,BA,1.388Test4,1,23,standard,PIX,ba_base_pix.avi,1,j,BA,1.302Test4,1,24,oddball,PIX,ba_redu_pix.avi,1,f,A,1.547Test4,1,25,standard,PIX,ba_base_pix.avi,1,j,BA,1.537Test4,1,26,oddball,PIX,ba_redu_pix.avi,1,f,A,1.384Test4,1,27,oddball,PIX,ba_redu_pix.avi,1,f,A,1.41Test4,1,28,standard,PIX,ba_base_pix.avi,1,j,BA,1.276Test4,1,29,standard,PIX,ba_base_pix.avi,1,j,BA,1.353Test4,1,30,standard,PIX,ba_base_pix.avi,1,j,BA,1.33Test4,1,31,standard,PIX,ba_base_pix.avi,1,j,BA,1.445Test4,1,32,standard,PIX,ba_base_pix.avi,1,j,BA,1.35Test4,1,33,oddball,PIX,ba_redu_pix.avi,1,f,A,1.372Test4,1,34,standard,PIX,ba_base_pix.avi,1,j,BA,1.476Test4,1,35,standard,PIX,ba_base_pix.avi,1,j,BA,1.447Test4,1,36,oddball,PIX,ba_redu_pix.avi,1,f,A,1.491Test4,1,37,oddball,PIX,ba_redu_pix.avi,1,f,A,1.546Test4,1,38,oddball,PIX,ba_redu_pix.avi,0,j,BA,1.414Test4,1,39,oddball,PIX,ba_redu_pix.avi,1,f,A,1.343Test4,1,40,oddball,PIX,ba_redu_pix.avi,1,f,A,1.477Test4,1,41,oddball,PIX,ba_redu_pix.avi,0,j,BA,1.593Test4,1,42,oddball,PIX,ba_redu_pix.avi,1,f,A,1.375Test4,1,43,standard,PIX,ba_base_pix.avi,1,j,BA,1.407Test4,1,44,standard,PIX,ba_base_pix.avi,1,j,BA,1.477Test4,1,45,standard,PIX,ba_base_pix.avi,1,j,BA,1.579Test4,1,46,oddball,PIX,ba_redu_pix.avi,0,j,BA,1.445Test4,1,47,oddball,PIX,ba_redu_pix.avi,1,f,A,1.412Test4,1,48,standard,PIX,ba_base_pix.avi,1,j,BA,1.543Test4,1,49,oddball,PIX,ba_redu_pix.avi,0,j,BA,1.449Test4,1,50,oddball,PIX,ba_redu_pix.avi,1,f,A,1.561Test4,1,51,oddball,PIX,ba_redu_pix.avi,1,f,A,2.026Test4,1,52,oddball,PIX,ba_redu_pix.avi,1,f,A,1.909Test4,1,53,standard,PIX,ba_base_pix.avi,1,j,BA,1.433Test4,1,54,standard,PIX,ba_base_pix.avi,1,j,BA,1.34Test4,1,55,oddball,PIX,ba_redu_pix.avi,1,f,A,1.414Test4,1,56,standard,PIX,ba_base_pix.avi,1,j,BA,1.194Test4,1,57,standard,PIX,ba_base_pix.avi,1,j,BA,1.411Test4,1,58,oddball,PIX,ba_redu_pix.avi,1,f,A,1.41Test4,1,59,oddball,PIX,ba_redu_pix.avi,1,f,A,1.42Test4,1,60,oddball,PIX,ba_redu_pix.avi,0,j,BA,1.344Test4,1,61,oddball,PIX,ba_redu_pix.avi,1,f,A,1.487Test4,1,62,standard,PIX,ba_base_pix.avi,1,j,BA,1.318Test4,1,63,standard,PIX,ba_base_pix.avi,1,j,BA,1.477Test4,1,64,standard,PIX,ba_base_pix.avi,1,j,BA,1.376Test4,1,65,oddball,PIX,ba_redu_pix.avi,1,f,A,1.335Test4,1,66,oddball,PIX,ba_redu_pix.avi,1,f,A,1.372Test4,1,67,oddball,PIX,ba_redu_pix.avi,1,f,A,1.3Test4,1,68,oddball,PIX,ba_redu_pix.avi,0,j,BA,1.305Test4,1,69,standard,PIX,ba_base_pix.avi,1,j,BA,1.55Test4,1,70,oddball,PIX,ba_redu_pix.avi,1,f,A,1.377Test4,1,71,oddball,PIX,ba_redu_pix.avi,1,f,A,1.304Test4,1,72,oddball,PIX,ba_redu_pix.avi,1,f,A,1.33Test4,1,73,oddball,PIX,ba_redu_pix.avi,0,j,BA,1.333Test4,1,74,standard,PIX,ba_base_pix.avi,1,j,BA,1.4Test4,1,75,standard,PIX,ba_base_pix.avi,1,j,BA,1.297Test4,1,76,standard,PIX,ba_base_pix.avi,1,j,BA,1.331Test4,1,77,standard,PIX,ba_base_pix.avi,1,j,BA,1.307Test4,1,78,standard,PIX,ba_base_pix.avi,1,j,BA,1.342Test4,1,79,oddball,PIX,ba_redu_pix.avi,1,f,A,1.343Test4,1,80,oddball,PIX,ba_redu_pix.avi,1,f,A,1.547Test4,1,81,standard,PIX,ba_base_pix.avi,1,j,BA,1.319Test4,1,82,oddball,PIX,ba_redu_pix.avi,1,f,A,1.583Test4,1,83,oddball,PIX,ba_redu_pix.avi,1,f,A,1.44Test4,1,84,oddball,PIX,ba_redu_pix.avi,1,f,A,1.406Test4,1,85,standard,PIX,ba_base_pix.avi,1,j,BA,1.295Test4,1,86,oddball,PIX,ba_redu_pix.avi,0,j,BA,1.274Test4,1,87,standard,PIX,ba_base_pix.avi,1,j,BA,1.374Test4,1,88,standard,PIX,ba_base_pix.avi,1,j,BA,1.371Test4,1,89,standard,PIX,ba_base_pix.avi,1,j,BA,1.353Test4,1,90,standard,PIX,ba_base_pix.avi,1,j,BA,1.234Test4,1,91,oddball,PIX,ba_redu_pix.avi,1,f,A,1.441Test4,1,92,standard,PIX,ba_base_pix.avi,1,j,BA,1.484Test4,1,93,oddball,PIX,ba_redu_pix.avi,1,f,A,1.274Test4,1,94,standard,PIX,ba_base_pix.avi,1,j,BA,1.249Test4,1,95,standard,PIX,ba_base_pix.avi,1,j,BA,1.282Test4,1,96,oddball,PIX,ba_redu_pix.avi,1,f,A,1.346Test4,1,97,oddball,PIX,ba_redu_pix.avi,1,f,A,1.333Test4,1,98,standard,PIX,ba_base_pix.avi,1,j,BA,1.227Test4,1,99,oddball,PIX,ba_redu_pix.avi,1,f,A,1.506Test4,1,100,standard,PIX,ba_base_pix.avi,1,j,BA,1.268Test4,2,1,standard,PL,ba_base_pl.avi,1,j,BA,2.04Test4,2,2,oddball,PL,ba_redu_pl.avi,1,f,A,1.27Test4,2,3,oddball,PL,ba_redu_pl.avi,0,j,BA,1.471Test4,2,4,oddball,PL,ba_redu_pl.avi,1,f,A,1.466Test4,2,5,standard,PL,ba_base_pl.avi,1,j,BA,1.398Test4,2,6,oddball,PL,ba_redu_pl.avi,1,f,A,1.228Test4,2,7,oddball,PL,ba_redu_pl.avi,1,f,A,1.3Test4,2,8,standard,PL,ba_base_pl.avi,1,j,BA,1.295Test4,2,9,standard,PL,ba_base_pl.avi,1,j,BA,1.369Test4,2,10,oddball,PL,ba_redu_pl.avi,1,f,A,1.204Test4,2,11,standard,PL,ba_base_pl.avi,1,j,BA,1.336Test4,2,12,oddball,PL,ba_redu_pl.avi,1,f,A,1.402Test4,2,13,standard,PL,ba_base_pl.avi,1,j,BA,1.398Test4,2,14,oddball,PL,ba_redu_pl.avi,1,f,A,1.294Test4,2,15,standard,PL,ba_base_pl.avi,1,j,BA,1.222Test4,2,16,standard,PL,ba_base_pl.avi,0,f,A,1.204Test4,2,17,oddball,PL,ba_redu_pl.avi,1,f,A,1.308Test4,2,18,standard,PL,ba_base_pl.avi,1,j,BA,1.355Test4,2,19,oddball,PL,ba_redu_pl.avi,1,f,A,1.851Test4,2,20,standard,PL,ba_base_pl.avi,1,j,BA,1.467Test4,2,21,oddball,PL,ba_redu_pl.avi,1,f,A,1.192Test4,2,22,oddball,PL,ba_redu_pl.avi,1,f,A,1.474Test4,2,23,oddball,PL,ba_redu_pl.avi,1,f,A,1.468Test4,2,24,standard,PL,ba_base_pl.avi,1,j,BA,1.321Test4,2,25,oddball,PL,ba_redu_pl.avi,1,f,A,1.405Test4,2,26,standard,PL,ba_base_pl.avi,1,j,BA,1.371Test4,2,27,standard,PL,ba_base_pl.avi,1,j,BA,1.371Test4,2,28,oddball,PL,ba_redu_pl.avi,1,f,A,1.437Test4,2,29,standard,PL,ba_base_pl.avi,1,j,BA,1.341Test4,2,30,oddball,PL,ba_redu_pl.avi,1,f,A,1.404Test4,2,31,oddball,PL,ba_redu_pl.avi,1,f,A,1.403Test4,2,32,standard,PL,ba_base_pl.avi,1,j,BA,1.337Test4,2,33,oddball,PL,ba_redu_pl.avi,1,f,A,1.538Test4,2,34,standard,PL,ba_base_pl.avi,1,j,BA,1.4Test4,2,35,standard,PL,ba_base_pl.avi,1,j,BA,1.472Test4,2,36,standard,PL,ba_base_pl.avi,1,j,BA,1.845Test4,2,37,standard,PL,ba_base_pl.avi,1,j,BA,1.5Test4,2,38,oddball,PL,ba_redu_pl.avi,1,f,A,1.401Test4,2,39,oddball,PL,ba_redu_pl.avi,1,f,A,1.467Test4,2,40,oddball,PL,ba_redu_pl.avi,1,f,A,1.844Test4,2,41,oddball,PL,ba_redu_pl.avi,1,f,A,1.468Test4,2,42,oddball,PL,ba_redu_pl.avi,1,f,A,1.324Test4,2,43,oddball,PL,ba_redu_pl.avi,1,f,A,1.533Test4,2,44,standard,PL,ba_base_pl.avi,1,j,BA,1.499Test4,2,45,standard,PL,ba_base_pl.avi,1,j,BA,1.361Test4,2,46,standard,PL,ba_base_pl.avi,1,j,BA,1.266Test4,2,47,oddball,PL,ba_redu_pl.avi,1,f,A,1.327Test4,2,48,standard,PL,ba_base_pl.avi,1,j,BA,1.371Test4,2,49,standard,PL,ba_base_pl.avi,1,j,BA,1.4Test4,2,50,oddball,PL,ba_redu_pl.avi,1,f,A,1.398Test4,2,51,oddball,PL,ba_redu_pl.avi,1,f,A,1.466Test4,2,52,oddball,PL,ba_redu_pl.avi,1,f,A,1.289Test4,2,53,standard,PL,ba_base_pl.avi,1,j,BA,1.203Test4,2,54,standard,PL,ba_base_pl.avi,1,j,BA,1.341Test4,2,55,oddball,PL,ba_redu_pl.avi,1,f,A,1.503Test4,2,56,oddball,PL,ba_redu_pl.avi,1,f,A,1.534Test4,2,57,oddball,PL,ba_redu_pl.avi,1,f,A,1.858Test4,2,58,oddball,PL,ba_redu_pl.avi,1,f,A,1.852Test4,2,59,standard,PL,ba_base_pl.avi,1,j,BA,1.433Test4,2,60,standard,PL,ba_base_pl.avi,1,j,BA,1.508Test4,2,61,standard,PL,ba_base_pl.avi,1,j,BA,1.432Test4,2,62,oddball,PL,ba_redu_pl.avi,1,f,A,1.459Test4,2,63,standard,PL,ba_base_pl.avi,1,j,BA,1.468Test4,2,64,standard,PL,ba_base_pl.avi,1,j,BA,1.294Test4,2,65,oddball,PL,ba_redu_pl.avi,1,f,A,1.468Test4,2,66,oddball,PL,ba_redu_pl.avi,1,f,A,1.853Test4,2,67,standard,PL,ba_base_pl.avi,1,j,BA,1.496Test4,2,68,standard,PL,ba_base_pl.avi,1,j,BA,1.357Test4,2,69,standard,PL,ba_base_pl.avi,0,f,A,1.366Test4,2,70,oddball,PL,ba_redu_pl.avi,1,f,A,1.463Test4,2,71,oddball,PL,ba_redu_pl.avi,1,f,A,1.4Test4,2,72,standard,PL,ba_base_pl.avi,1,j,BA,1.501Test4,2,73,oddball,PL,ba_redu_pl.avi,1,f,A,1.856Test4,2,74,standard,PL,ba_base_pl.avi,1,j,BA,1.505Test4,2,75,standard,PL,ba_base_pl.avi,1,j,BA,1.857Test4,2,76,standard,PL,ba_base_pl.avi,1,j,BA,1.854Test4,2,77,standard,PL,ba_base_pl.avi,1,j,BA,1.523Test4,2,78,standard,PL,ba_base_pl.avi,1,j,BA,1.438Test4,2,79,oddball,PL,ba_redu_pl.avi,1,f,A,1.548Test4,2,80,standard,PL,ba_base_pl.avi,1,j,BA,1.853Test4,2,81,oddball,PL,ba_redu_pl.avi,1,f,A,1.539Test4,2,82,oddball,PL,ba_redu_pl.avi,0,none,none,999Test4,2,83,standard,PL,ba_base_pl.avi,1,j,BA,0.161Test4,2,84,oddball,PL,ba_redu_pl.avi,1,f,A,1.9Test4,2,85,standard,PL,ba_base_pl.avi,1,j,BA,1.537Test4,2,86,oddball,PL,ba_redu_pl.avi,1,f,A,1.405Test4,2,87,standard,PL,ba_base_pl.avi,1,j,BA,1.524Test4,2,88,oddball,PL,ba_redu_pl.avi,1,f,A,1.301Test4,2,89,standard,PL,ba_base_pl.avi,1,j,BA,1.539Test4,2,90,oddball,PL,ba_redu_pl.avi,1,f,A,1.463Test4,2,91,oddball,PL,ba_redu_pl.avi,1,f,A,1.85Test4,2,92,oddball,PL,ba_redu_pl.avi,1,f,A,1.502Test4,2,93,oddball,PL,ba_redu_pl.avi,1,f,A,1.855Test4,2,94,standard,PL,ba_base_pl.avi,1,j,BA,1.438Test4,2,95,standard,PL,ba_base_pl.avi,1,j,BA,1.499Test4,2,96,oddball,PL,ba_redu_pl.avi,1,f,A,1.306Test4,2,97,oddball,PL,ba_redu_pl.avi,1,f,A,1.858Test4,2,98,standard,PL,ba_base_pl.avi,1,j,BA,1.401Test4,2,99,standard,PL,ba_base_pl.avi,1,j,BA,1.536Test4,2,100,standard,PL,ba_base_pl.avi,1,j,BA,1.429Test4,3,1,standard,AV,ba_base_face.avi,1,j,BA,1.468Test4,3,2,standard,AV,ba_base_face.avi,1,j,BA,1.297Test4,3,3,standard,AV,ba_base_face.avi,1,j,BA,1.362Test4,3,4,oddball,AV,ba_redu_face.avi,0,j,BA,1.919Test4,3,5,standard,AV,ba_base_face.avi,1,j,BA,1.399Test4,3,6,oddball,AV,ba_redu_face.avi,0,j,BA,1.61Test4,3,7,oddball,AV,ba_redu_face.avi,0,j,BA,1.495Test4,3,8,oddball,AV,ba_redu_face.avi,0,j,BA,1.361Test4,3,9,oddball,AV,ba_redu_face.avi,0,j,BA,1.531Test4,3,10,standard,AV,ba_base_face.avi,1,j,BA,1.328Test4,3,11,standard,AV,ba_base_face.avi,1,j,BA,1.364Test4,3,12,oddball,AV,ba_redu_face.avi,0,j,BA,1.503Test4,3,13,standard,AV,ba_base_face.avi,1,j,BA,1.61Test4,3,14,oddball,AV,ba_redu_face.avi,0,j,BA,1.456Test4,3,15,oddball,AV,ba_redu_face.avi,0,j,BA,1.275Test4,3,16,oddball,AV,ba_redu_face.avi,0,j,BA,1.363Test4,3,17,oddball,AV,ba_redu_face.avi,0,j,BA,-0.229Test4,3,18,oddball,AV,ba_redu_face.avi,0,j,BA,1.361Test4,3,19,standard,AV,ba_base_face.avi,1,j,BA,1.562Test4,3,20,standard,AV,ba_base_face.avi,1,j,BA,1.47Test4,3,21,standard,AV,ba_base_face.avi,1,j,BA,1.267Test4,3,22,standard,AV,ba_base_face.avi,1,j,BA,1.36Test4,3,23,standard,AV,ba_base_face.avi,1,j,BA,-0.36Test4,3,24,standard,AV,ba_base_face.avi,1,j,BA,1.287Test4,3,25,standard,AV,ba_base_face.avi,1,j,BA,1.325Test4,3,26,standard,AV,ba_base_face.avi,1,j,BA,1.266Test4,3,27,oddball,AV,ba_redu_face.avi,0,j,BA,1.611Test4,3,28,oddball,AV,ba_redu_face.avi,0,j,BA,1.494Test4,3,29,oddball,AV,ba_redu_face.avi,0,j,BA,1.333Test4,3,30,oddball,AV,ba_redu_face.avi,0,j,BA,1.369Test4,3,31,oddball,AV,ba_redu_face.avi,0,j,BA,1.43Test4,3,32,oddball,AV,ba_redu_face.avi,0,j,BA,1.558Test4,3,33,standard,AV,ba_base_face.avi,1,j,BA,1.228Test4,3,34,oddball,AV,ba_redu_face.avi,0,j,BA,1.154Test4,3,35,oddball,AV,ba_redu_face.avi,0,j,BA,1.208Test4,3,36,oddball,AV,ba_redu_face.avi,0,j,BA,1.231Test4,3,37,oddball,AV,ba_redu_face.avi,0,j,BA,1.165Test4,3,38,oddball,AV,ba_redu_face.avi,0,j,BA,1.235Test4,3,39,oddball,AV,ba_redu_face.avi,0,j,BA,1.294Test4,3,40,oddball,AV,ba_redu_face.avi,0,j,BA,1.422Test4,3,41,oddball,AV,ba_redu_face.avi,0,j,BA,1.299Test4,3,42,oddball,AV,ba_redu_face.avi,0,j,BA,1.331Test4,3,43,oddball,AV,ba_redu_face.avi,0,j,BA,1.264Test4,3,44,oddball,AV,ba_redu_face.avi,0,j,BA,1.165Test4,3,45,oddball,AV,ba_redu_face.avi,0,j,BA,1.23Test4,3,46,standard,AV,ba_base_face.avi,1,j,BA,1.094Test4,3,47,oddball,AV,ba_redu_face.avi,0,j,BA,1.43Test4,3,48,standard,AV,ba_base_face.avi,1,j,BA,1.363Test4,3,49,oddball,AV,ba_redu_face.avi,0,j,BA,1.422Test4,3,50,standard,AV,ba_base_face.avi,1,j,BA,1.275Test4,3,51,standard,AV,ba_base_face.avi,1,j,BA,1.188Test4,3,52,oddball,AV,ba_redu_face.avi,0,j,BA,1.287Test4,3,53,oddball,AV,ba_redu_face.avi,0,j,BA,1.358Test4,3,54,standard,AV,ba_base_face.avi,1,j,BA,1.298Test4,3,55,standard,AV,ba_base_face.avi,1,j,BA,1.295Test4,3,56,oddball,AV,ba_redu_face.avi,0,j,BA,0.995Test4,3,57,oddball,AV,ba_redu_face.avi,0,j,BA,1.39Test4,3,58,standard,AV,ba_base_face.avi,1,j,BA,1.292Test4,3,59,standard,AV,ba_base_face.avi,1,j,BA,1.427Test4,3,60,standard,AV,ba_base_face.avi,1,j,BA,1.254Test4,3,61,standard,AV,ba_base_face.avi,1,j,BA,1.357Test4,3,62,oddball,AV,ba_redu_face.avi,0,j,BA,1.267Test4,3,63,standard,AV,ba_base_face.avi,1,j,BA,1.426Test4,3,64,oddball,AV,ba_redu_face.avi,0,j,BA,1.226Test4,3,65,standard,AV,ba_base_face.avi,1,j,BA,1.305Test4,3,66,standard,AV,ba_base_face.avi,1,j,BA,1.43Test4,3,67,standard,AV,ba_base_face.avi,1,j,BA,1.261Test4,3,68,oddball,AV,ba_redu_face.avi,0,j,BA,1.394Test4,3,69,standard,AV,ba_base_face.avi,1,j,BA,1.337Test4,3,70,standard,AV,ba_base_face.avi,1,j,BA,1.259Test4,3,71,standard,AV,ba_base_face.avi,1,j,BA,1.265Test4,3,72,oddball,AV,ba_redu_face.avi,0,j,BA,1.256Test4,3,73,standard,AV,ba_base_face.avi,1,j,BA,1.335Test4,3,74,standard,AV,ba_base_face.avi,1,j,BA,1.234Test4,3,75,oddball,AV,ba_redu_face.avi,0,j,BA,1.195Test4,3,76,oddball,AV,ba_redu_face.avi,0,j,BA,1.296Test4,3,77,standard,AV,ba_base_face.avi,1,j,BA,1.229Test4,3,78,oddball,AV,ba_redu_face.avi,0,j,BA,1.193Test4,3,79,standard,AV,ba_base_face.avi,1,j,BA,1.162Test4,3,80,standard,AV,ba_base_face.avi,1,j,BA,1.402Test4,3,81,standard,AV,ba_base_face.avi,1,j,BA,1.134Test4,3,82,oddball,AV,ba_redu_face.avi,0,j,BA,1.159Test4,3,83,oddball,AV,ba_redu_face.avi,0,j,BA,1.172Test4,3,84,standard,AV,ba_base_face.avi,1,j,BA,1.056Test4,3,85,oddball,AV,ba_redu_face.avi,0,j,BA,1.222Test4,3,86,standard,AV,ba_base_face.avi,1,j,BA,1.235Test4,3,87,standard,AV,ba_base_face.avi,1,j,BA,1.223Test4,3,88,standard,AV,ba_base_face.avi,1,j,BA,1.291Test4,3,89,oddball,AV,ba_redu_face.avi,1,f,A,1.493Test4,3,90,oddball,AV,ba_redu_face.avi,0,j,BA,1.23Test4,3,91,oddball,AV,ba_redu_face.avi,0,j,BA,1.201Test4,3,92,standard,AV,ba_base_face.avi,1,j,BA,1.26Test4,3,93,oddball,AV,ba_redu_face.avi,0,j,BA,1.524Test4,3,94,standard,AV,ba_base_face.avi,1,j,BA,1.302Test4,3,95,oddball,AV,ba_redu_face.avi,1,f,A,1.918Test4,3,96,standard,AV,ba_base_face.avi,1,j,BA,1.194Test4,3,97,standard,AV,ba_base_face.avi,1,j,BA,1.263Test4,3,98,standard,AV,ba_base_face.avi,1,j,BA,1.207Test4,3,99,standard,AV,ba_base_face.avi,1,j,BA,1.192Test4,3,100,standard,AV,ba_base_face.avi,1,j,BA,1.366Test1,1,1,oddball,AV,ba_redu_face.avi,0,j,BA,1.92Test1,1,2,standard,AV,ba_base_face.avi,1,j,BA,1.558Test1,1,3,oddball,AV,ba_redu_face.avi,0,j,BA,1.496Test1,1,4,standard,AV,ba_base_face.avi,1,j,BA,1.912Test1,1,5,standard,AV,ba_base_face.avi,1,j,BA,1.558Test1,1,6,oddball,AV,ba_redu_face.avi,0,j,BA,1.909Test1,1,7,standard,AV,ba_base_face.avi,1,j,BA,1.557Test1,1,8,standard,AV,ba_base_face.avi,1,j,BA,1.914Test1,1,9,oddball,AV,ba_redu_face.avi,0,j,BA,1.914Test1,1,10,oddball,AV,ba_redu_face.avi,0,j,BA,1.915Test1,1,11,oddball,AV,ba_redu_face.avi,0,j,BA,1.913Test1,1,12,oddball,AV,ba_redu_face.avi,0,j,BA,1.604Test1,1,13,oddball,AV,ba_redu_face.avi,0,j,BA,1.911Test1,1,14,standard,AV,ba_base_face.avi,1,j,BA,1.587Test1,1,15,standard,AV,ba_base_face.avi,1,j,BA,1.912Test1,1,16,oddball,AV,ba_redu_face.avi,0,j,BA,1.914Test1,1,17,standard,AV,ba_base_face.avi,1,j,BA,1.562Test1,1,18,standard,AV,ba_base_face.avi,1,j,BA,1.909Test1,1,19,oddball,AV,ba_redu_face.avi,0,j,BA,1.911Test1,1,20,oddball,AV,ba_redu_face.avi,0,j,BA,1.559Test1,1,21,standard,AV,ba_base_face.avi,1,j,BA,1.586Test1,1,22,standard,AV,ba_base_face.avi,1,j,BA,1.561Test1,1,23,oddball,AV,ba_redu_face.avi,0,none,none,999Test1,1,24,standard,AV,ba_base_face.avi,1,j,BA,0.001Test1,1,25,standard,AV,ba_base_face.avi,1,j,BA,1.561Test1,1,26,standard,AV,ba_base_face.avi,1,j,BA,1.522Test1,1,27,oddball,AV,ba_redu_face.avi,1,f,A,1.911Test1,1,28,standard,AV,ba_base_face.avi,1,j,BA,1.456Test1,1,29,oddball,AV,ba_redu_face.avi,0,j,BA,1.466Test1,1,30,standard,AV,ba_base_face.avi,1,j,BA,1.486Test1,1,31,oddball,AV,ba_redu_face.avi,1,f,A,1.914Test1,1,32,oddball,AV,ba_redu_face.avi,0,j,BA,1.601Test1,1,33,oddball,AV,ba_redu_face.avi,0,j,BA,1.455Test1,1,34,oddball,AV,ba_redu_face.avi,0,j,BA,1.525Test1,1,35,standard,AV,ba_base_face.avi,1,j,BA,1.59Test1,1,36,oddball,AV,ba_redu_face.avi,0,j,BA,1.558Test1,1,37,oddball,AV,ba_redu_face.avi,0,j,BA,1.588Test1,1,38,oddball,AV,ba_redu_face.avi,0,j,BA,1.591Test1,1,39,oddball,AV,ba_redu_face.avi,0,j,BA,1.912Test1,1,40,oddball,AV,ba_redu_face.avi,0,j,BA,1.915Test1,1,41,oddball,AV,ba_redu_face.avi,0,j,BA,1.909Test1,1,42,standard,AV,ba_base_face.avi,1,j,BA,1.913Test1,1,43,oddball,AV,ba_redu_face.avi,0,j,BA,1.556Test1,1,44,oddball,AV,ba_redu_face.avi,0,j,BA,1.919Test1,1,45,standard,AV,ba_base_face.avi,1,j,BA,1.59Test1,1,46,standard,AV,ba_base_face.avi,1,j,BA,1.559Test1,1,47,standard,AV,ba_base_face.avi,1,j,BA,1.915Test1,1,48,oddball,AV,ba_redu_face.avi,0,j,BA,1.917Test1,1,49,standard,AV,ba_base_face.avi,1,j,BA,1.912Test1,1,50,oddball,AV,ba_redu_face.avi,0,j,BA,1.913Test1,1,51,standard,AV,ba_base_face.avi,1,j,BA,1.539Test1,1,52,oddball,AV,ba_redu_face.avi,0,j,BA,1.913Test1,1,53,oddball,AV,ba_redu_face.avi,0,j,BA,1.6Test1,1,54,standard,AV,ba_base_face.avi,1,j,BA,1.92Test1,1,55,standard,AV,ba_base_face.avi,1,j,BA,1.524Test1,1,56,standard,AV,ba_base_face.avi,1,j,BA,1.523Test1,1,57,standard,AV,ba_base_face.avi,1,j,BA,1.492Test1,1,58,standard,AV,ba_base_face.avi,1,j,BA,1.565Test1,1,59,standard,AV,ba_base_face.avi,1,j,BA,1.558Test1,1,60,oddball,AV,ba_redu_face.avi,0,j,BA,1.602Test1,1,61,standard,AV,ba_base_face.avi,1,j,BA,1.531Test1,1,62,standard,AV,ba_base_face.avi,1,j,BA,1.915Test1,1,63,standard,AV,ba_base_face.avi,1,j,BA,1.912Test1,1,64,oddball,AV,ba_redu_face.avi,1,f,A,1.914Test1,1,65,standard,AV,ba_base_face.avi,1,j,BA,1.467Test1,1,66,oddball,AV,ba_redu_face.avi,0,j,BA,1.557Test1,1,67,standard,AV,ba_base_face.avi,1,j,BA,1.533Test1,1,68,oddball,AV,ba_redu_face.avi,0,j,BA,1.912Test1,1,69,oddball,AV,ba_redu_face.avi,0,j,BA,1.525Test1,1,70,oddball,AV,ba_redu_face.avi,0,j,BA,1.487Test1,1,71,standard,AV,ba_base_face.avi,1,j,BA,1.466Test1,1,72,standard,AV,ba_base_face.avi,1,j,BA,1.586Test1,1,73,oddball,AV,ba_redu_face.avi,1,f,A,1.912Test1,1,74,standard,AV,ba_base_face.avi,1,j,BA,1.53Test1,1,75,standard,AV,ba_base_face.avi,1,j,BA,1.491Test1,1,76,oddball,AV,ba_redu_face.avi,1,f,A,1.911Test1,1,77,oddball,AV,ba_redu_face.avi,1,f,A,1.912Test1,1,78,oddball,AV,ba_redu_face.avi,1,f,A,1.915Test1,1,79,oddball,AV,ba_redu_face.avi,1,f,A,1.526Test1,1,80,oddball,AV,ba_redu_face.avi,1,f,A,1.916Test1,1,81,oddball,AV,ba_redu_face.avi,1,f,A,1.916Test1,1,82,standard,AV,ba_base_face.avi,1,j,BA,1.916Test1,1,83,standard,AV,ba_base_face.avi,1,j,BA,1.59Test1,1,84,standard,AV,ba_base_face.avi,1,j,BA,1.916Test1,1,85,oddball,AV,ba_redu_face.avi,1,f,A,1.911Test1,1,86,oddball,AV,ba_redu_face.avi,1,f,A,1.912Test1,1,87,standard,AV,ba_base_face.avi,1,j,BA,1.588Test1,1,88,oddball,AV,ba_redu_face.avi,1,f,A,1.915Test1,1,89,standard,AV,ba_base_face.avi,1,j,BA,1.457Test1,1,90,oddball,AV,ba_redu_face.avi,1,f,A,1.912Test1,1,91,standard,AV,ba_base_face.avi,1,j,BA,1.559Test1,1,92,standard,AV,ba_base_face.avi,1,j,BA,1.489Test1,1,93,standard,AV,ba_base_face.avi,1,j,BA,1.91Test1,1,94,standard,AV,ba_base_face.avi,1,j,BA,1.559Test1,1,95,oddball,AV,ba_redu_face.avi,1,f,A,1.558Test1,1,96,standard,AV,ba_base_face.avi,0,f,A,1.91Test1,1,97,oddball,AV,ba_redu_face.avi,0,j,BA,1.497Test1,1,98,oddball,AV,ba_redu_face.avi,1,f,A,1.915Test1,1,99,standard,AV,ba_base_face.avi,0,f,A,1.909Test1,1,100,standard,AV,ba_base_face.avi,1,j,BA,1.529Test1,2,1,oddball,PIX,ba_redu_pix.avi,1,f,A,1.901Test1,2,2,oddball,PIX,ba_redu_pix.avi,1,f,A,1.899Test1,2,3,standard,PIX,ba_base_pix.avi,1,j,BA,1.401Test1,2,4,standard,PIX,ba_base_pix.avi,1,j,BA,1.572Test1,2,5,oddball,PIX,ba_redu_pix.avi,1,f,A,1.589Test1,2,6,standard,PIX,ba_base_pix.avi,1,j,BA,1.542Test1,2,7,standard,PIX,ba_base_pix.avi,1,j,BA,1.549Test1,2,8,oddball,PIX,ba_redu_pix.avi,1,f,A,1.595Test1,2,9,oddball,PIX,ba_redu_pix.avi,1,f,A,1.91Test1,2,10,standard,PIX,ba_base_pix.avi,1,j,BA,1.542Test1,2,11,oddball,PIX,ba_redu_pix.avi,1,f,A,1.507Test1,2,12,standard,PIX,ba_base_pix.avi,1,j,BA,1.575Test1,2,13,standard,PIX,ba_base_pix.avi,1,j,BA,1.897Test1,2,14,oddball,PIX,ba_redu_pix.avi,1,f,A,1.504Test1,2,15,standard,PIX,ba_base_pix.avi,1,j,BA,1.895Test1,2,16,oddball,PIX,ba_redu_pix.avi,1,f,A,1.55Test1,2,17,oddball,PIX,ba_redu_pix.avi,1,f,A,1.542Test1,2,18,standard,PIX,ba_base_pix.avi,1,j,BA,1.577Test1,2,19,standard,PIX,ba_base_pix.avi,1,j,BA,1.507Test1,2,20,oddball,PIX,ba_redu_pix.avi,1,f,A,1.434Test1,2,21,oddball,PIX,ba_redu_pix.avi,1,f,A,1.441Test1,2,22,standard,PIX,ba_base_pix.avi,1,j,BA,1.904Test1,2,23,oddball,PIX,ba_redu_pix.avi,1,f,A,1.571Test1,2,24,standard,PIX,ba_base_pix.avi,1,j,BA,1.893Test1,2,25,standard,PIX,ba_base_pix.avi,1,j,BA,1.9Test1,2,26,oddball,PIX,ba_redu_pix.avi,1,f,A,1.558Test1,2,27,standard,PIX,ba_base_pix.avi,1,j,BA,1.903Test1,2,28,standard,PIX,ba_base_pix.avi,1,j,BA,1.91Test1,2,29,oddball,PIX,ba_redu_pix.avi,1,f,A,1.895Test1,2,30,oddball,PIX,ba_redu_pix.avi,1,f,A,1.476Test1,2,31,oddball,PIX,ba_redu_pix.avi,1,f,A,1.897Test1,2,32,standard,PIX,ba_base_pix.avi,1,j,BA,1.898Test1,2,33,standard,PIX,ba_base_pix.avi,1,j,BA,1.897Test1,2,34,oddball,PIX,ba_redu_pix.avi,1,f,A,1.899Test1,2,35,standard,PIX,ba_base_pix.avi,0,f,A,2.071Test1,2,36,standard,PIX,ba_base_pix.avi,1,j,BA,2.046Test1,2,37,standard,PIX,ba_base_pix.avi,0,none,none,999Test1,2,38,oddball,PIX,ba_redu_pix.avi,0,j,BA,0.001Test1,2,39,standard,PIX,ba_base_pix.avi,1,j,BA,1.9Test1,2,40,oddball,PIX,ba_redu_pix.avi,1,f,A,1.537Test1,2,41,oddball,PIX,ba_redu_pix.avi,1,f,A,1.899Test1,2,42,oddball,PIX,ba_redu_pix.avi,1,f,A,1.561Test1,2,43,standard,PIX,ba_base_pix.avi,1,j,BA,1.515Test1,2,44,oddball,PIX,ba_redu_pix.avi,1,f,A,1.504Test1,2,45,standard,PIX,ba_base_pix.avi,1,j,BA,1.483Test1,2,46,oddball,PIX,ba_redu_pix.avi,1,f,A,1.897Test1,2,47,standard,PIX,ba_base_pix.avi,1,j,BA,1.898Test1,2,48,standard,PIX,ba_base_pix.avi,1,j,BA,1.908Test1,2,49,standard,PIX,ba_base_pix.avi,1,j,BA,1.956Test1,2,50,oddball,PIX,ba_redu_pix.avi,1,f,A,1.511Test1,2,51,standard,PIX,ba_base_pix.avi,1,j,BA,1.898Test1,2,52,standard,PIX,ba_base_pix.avi,1,j,BA,1.574Test1,2,53,oddball,PIX,ba_redu_pix.avi,1,f,A,1.542Test1,2,54,standard,PIX,ba_base_pix.avi,1,j,BA,1.589Test1,2,55,standard,PIX,ba_base_pix.avi,1,j,BA,1.908Test1,2,56,oddball,PIX,ba_redu_pix.avi,1,f,A,1.549Test1,2,57,standard,PIX,ba_base_pix.avi,1,j,BA,1.572Test1,2,58,oddball,PIX,ba_redu_pix.avi,1,f,A,1.475Test1,2,59,standard,PIX,ba_base_pix.avi,1,j,BA,1.909Test1,2,60,standard,PIX,ba_base_pix.avi,1,j,BA,1.898Test1,2,61,oddball,PIX,ba_redu_pix.avi,1,f,A,1.896Test1,2,62,standard,PIX,ba_base_pix.avi,1,j,BA,1.586Test1,2,63,oddball,PIX,ba_redu_pix.avi,1,f,A,1.895Test1,2,64,oddball,PIX,ba_redu_pix.avi,1,f,A,1.898Test1,2,65,standard,PIX,ba_base_pix.avi,1,j,BA,1.898Test1,2,66,oddball,PIX,ba_redu_pix.avi,1,f,A,1.898Test1,2,67,standard,PIX,ba_base_pix.avi,1,j,BA,2.058Test1,2,68,standard,PIX,ba_base_pix.avi,1,j,BA,1.54Test1,2,69,oddball,PIX,ba_redu_pix.avi,1,f,A,1.897Test1,2,70,standard,PIX,ba_base_pix.avi,1,j,BA,1.898Test1,2,71,oddball,PIX,ba_redu_pix.avi,1,f,A,1.47Test1,2,72,standard,PIX,ba_base_pix.avi,1,j,BA,1.576Test1,2,73,oddball,PIX,ba_redu_pix.avi,1,f,A,1.896Test1,2,74,standard,PIX,ba_base_pix.avi,1,j,BA,1.542Test1,2,75,oddball,PIX,ba_redu_pix.avi,1,f,A,1.54Test1,2,76,oddball,PIX,ba_redu_pix.avi,1,f,A,1.438Test1,2,77,oddball,PIX,ba_redu_pix.avi,1,f,A,1.895Test1,2,78,oddball,PIX,ba_redu_pix.avi,1,f,A,1.475Test1,2,79,oddball,PIX,ba_redu_pix.avi,1,f,A,1.504Test1,2,80,oddball,PIX,ba_redu_pix.avi,1,f,A,1.593Test1,2,81,oddball,PIX,ba_redu_pix.avi,1,f,A,1.441Test1,2,82,standard,PIX,ba_base_pix.avi,1,j,BA,1.573Test1,2,83,standard,PIX,ba_base_pix.avi,1,j,BA,1.438Test1,2,84,standard,PIX,ba_base_pix.avi,1,j,BA,1.595Test1,2,85,standard,PIX,ba_base_pix.avi,1,j,BA,1.895Test1,2,86,standard,PIX,ba_base_pix.avi,1,j,BA,1.538Test1,2,87,oddball,PIX,ba_redu_pix.avi,1,f,A,1.548Test1,2,88,oddball,PIX,ba_redu_pix.avi,1,f,A,1.373Test1,2,89,oddball,PIX,ba_redu_pix.avi,1,f,A,1.48Test1,2,90,oddball,PIX,ba_redu_pix.avi,1,f,A,1.442Test1,2,91,standard,PIX,ba_base_pix.avi,0,f,A,1.572Test1,2,92,oddball,PIX,ba_redu_pix.avi,1,f,A,1.573Test1,2,93,oddball,PIX,ba_redu_pix.avi,1,f,A,1.405Test1,2,94,oddball,PIX,ba_redu_pix.avi,1,f,A,1.409Test1,2,95,oddball,PIX,ba_redu_pix.avi,1,f,A,1.406Test1,2,96,standard,PIX,ba_base_pix.avi,1,j,BA,1.447Test1,2,97,oddball,PIX,ba_redu_pix.avi,1,f,A,1.542Test1,2,98,standard,PIX,ba_base_pix.avi,1,j,BA,1.894Test1,2,99,standard,PIX,ba_base_pix.avi,1,j,BA,1.405Test1,2,100,standard,PIX,ba_base_pix.avi,1,j,BA,1.372Test1,3,1,standard,PL,ba_base_pl.avi,0,none,none,999Test1,3,2,standard,PL,ba_base_pl.avi,1,j,BA,0.161Test1,3,3,standard,PL,ba_base_pl.avi,1,j,BA,1.848Test1,3,4,standard,PL,ba_base_pl.avi,1,j,BA,1.919Test1,3,5,standard,PL,ba_base_pl.avi,1,j,BA,1.851Test1,3,6,oddball,PL,ba_redu_pl.avi,1,f,A,1.534Test1,3,7,oddball,PL,ba_redu_pl.avi,0,none,none,999Test1,3,8,standard,PL,ba_base_pl.avi,0,f,A,0.001Test1,3,9,oddball,PL,ba_redu_pl.avi,1,f,A,1.85Test1,3,10,oddball,PL,ba_redu_pl.avi,1,f,A,1.53Test1,3,11,standard,PL,ba_base_pl.avi,1,j,BA,1.498Test1,3,12,oddball,PL,ba_redu_pl.avi,1,f,A,1.852Test1,3,13,oddball,PL,ba_redu_pl.avi,0,j,BA,1.854Test1,3,14,oddball,PL,ba_redu_pl.avi,1,f,A,1.85Test1,3,15,oddball,PL,ba_redu_pl.avi,1,f,A,1.848Test1,3,16,standard,PL,ba_base_pl.avi,1,j,BA,1.856Test1,3,17,standard,PL,ba_base_pl.avi,1,j,BA,1.847Test1,3,18,oddball,PL,ba_redu_pl.avi,0,none,none,999Test1,3,19,standard,PL,ba_base_pl.avi,0,f,A,0.001Test1,3,20,oddball,PL,ba_redu_pl.avi,1,f,A,1.859Test1,3,21,standard,PL,ba_base_pl.avi,1,j,BA,2.029Test1,3,22,oddball,PL,ba_redu_pl.avi,1,f,A,1.848Test1,3,23,oddball,PL,ba_redu_pl.avi,1,f,A,1.851Test1,3,24,oddball,PL,ba_redu_pl.avi,1,f,A,1.85Test1,3,25,oddball,PL,ba_redu_pl.avi,1,f,A,1.852Test1,3,26,oddball,PL,ba_redu_pl.avi,1,f,A,1.853Test1,3,27,oddball,PL,ba_redu_pl.avi,1,f,A,1.851Test1,3,28,standard,PL,ba_base_pl.avi,1,j,BA,1.851Test1,3,29,oddball,PL,ba_redu_pl.avi,1,f,A,1.85Test1,3,30,oddball,PL,ba_redu_pl.avi,1,f,A,1.853Test1,3,31,oddball,PL,ba_redu_pl.avi,1,f,A,1.854Test1,3,32,oddball,PL,ba_redu_pl.avi,1,f,A,1.851Test1,3,33,standard,PL,ba_base_pl.avi,1,j,BA,1.848Test1,3,34,standard,PL,ba_base_pl.avi,1,j,BA,1.496Test1,3,35,oddball,PL,ba_redu_pl.avi,1,f,A,1.544Test1,3,36,standard,PL,ba_base_pl.avi,1,j,BA,1.85Test1,3,37,standard,PL,ba_base_pl.avi,1,j,BA,1.852Test1,3,38,oddball,PL,ba_redu_pl.avi,1,f,A,1.847Test1,3,39,oddball,PL,ba_redu_pl.avi,1,f,A,1.854Test1,3,40,standard,PL,ba_base_pl.avi,1,j,BA,1.848Test1,3,41,standard,PL,ba_base_pl.avi,1,j,BA,1.851Test1,3,42,oddball,PL,ba_redu_pl.avi,1,f,A,1.503Test1,3,43,oddball,PL,ba_redu_pl.avi,1,f,A,1.848Test1,3,44,standard,PL,ba_base_pl.avi,1,j,BA,1.532Test1,3,45,standard,PL,ba_base_pl.avi,1,j,BA,1.495Test1,3,46,standard,PL,ba_base_pl.avi,1,j,BA,1.849Test1,3,47,standard,PL,ba_base_pl.avi,1,j,BA,1.85Test1,3,48,oddball,PL,ba_redu_pl.avi,1,f,A,1.851Test1,3,49,standard,PL,ba_base_pl.avi,1,j,BA,1.85Test1,3,50,standard,PL,ba_base_pl.avi,1,j,BA,1.853Test1,3,51,oddball,PL,ba_redu_pl.avi,1,f,A,1.851Test1,3,52,standard,PL,ba_base_pl.avi,1,j,BA,1.459Test1,3,53,standard,PL,ba_base_pl.avi,1,j,BA,1.464Test1,3,54,standard,PL,ba_base_pl.avi,1,j,BA,1.852Test1,3,55,standard,PL,ba_base_pl.avi,1,j,BA,1.459Test1,3,56,oddball,PL,ba_redu_pl.avi,1,f,A,1.371Test1,3,57,standard,PL,ba_base_pl.avi,1,j,BA,1.536Test1,3,58,oddball,PL,ba_redu_pl.avi,1,f,A,1.496Test1,3,59,standard,PL,ba_base_pl.avi,1,j,BA,1.851Test1,3,60,oddball,PL,ba_redu_pl.avi,1,f,A,1.539Test1,3,61,standard,PL,ba_base_pl.avi,1,j,BA,1.396Test1,3,62,oddball,PL,ba_redu_pl.avi,1,f,A,1.498Test1,3,63,oddball,PL,ba_redu_pl.avi,1,f,A,1.851Test1,3,64,standard,PL,ba_base_pl.avi,1,j,BA,1.457Test1,3,65,oddball,PL,ba_redu_pl.avi,1,f,A,1.851Test1,3,66,oddball,PL,ba_redu_pl.avi,1,f,A,1.855Test1,3,67,standard,PL,ba_base_pl.avi,1,j,BA,1.528Test1,3,68,oddball,PL,ba_redu_pl.avi,1,f,A,1.423Test1,3,69,standard,PL,ba_base_pl.avi,1,j,BA,1.491Test1,3,70,standard,PL,ba_base_pl.avi,1,j,BA,1.463Test1,3,71,oddball,PL,ba_redu_pl.avi,1,f,A,1.46Test1,3,72,standard,PL,ba_base_pl.avi,1,j,BA,1.853Test1,3,73,oddball,PL,ba_redu_pl.avi,1,f,A,1.498Test1,3,74,oddball,PL,ba_redu_pl.avi,1,f,A,1.524Test1,3,75,oddball,PL,ba_redu_pl.avi,1,f,A,1.849Test1,3,76,oddball,PL,ba_redu_pl.avi,1,f,A,1.458Test1,3,77,oddball,PL,ba_redu_pl.avi,1,f,A,1.465Test1,3,78,standard,PL,ba_base_pl.avi,1,j,BA,1.5Test1,3,79,oddball,PL,ba_redu_pl.avi,1,f,A,1.847Test1,3,80,oddball,PL,ba_redu_pl.avi,0,j,BA,1.849Test1,3,81,oddball,PL,ba_redu_pl.avi,1,f,A,1.403Test1,3,82,standard,PL,ba_base_pl.avi,1,j,BA,1.851Test1,3,83,oddball,PL,ba_redu_pl.avi,1,f,A,1.463Test1,3,84,standard,PL,ba_base_pl.avi,1,j,BA,1.401Test1,3,85,standard,PL,ba_base_pl.avi,1,j,BA,1.464Test1,3,86,oddball,PL,ba_redu_pl.avi,1,f,A,1.496Test1,3,87,standard,PL,ba_base_pl.avi,1,j,BA,1.532Test1,3,88,standard,PL,ba_base_pl.avi,1,j,BA,1.495Test1,3,89,standard,PL,ba_base_pl.avi,1,j,BA,1.428Test1,3,90,standard,PL,ba_base_pl.avi,1,j,BA,1.394Test1,3,91,standard,PL,ba_base_pl.avi,1,j,BA,1.362Test1,3,92,standard,PL,ba_base_pl.avi,1,j,BA,1.362Test1,3,93,oddball,PL,ba_redu_pl.avi,1,f,A,1.43Test1,3,94,standard,PL,ba_base_pl.avi,1,j,BA,1.528Test1,3,95,oddball,PL,ba_redu_pl.avi,1,f,A,1.396Test1,3,96,oddball,PL,ba_redu_pl.avi,1,f,A,1.848Test1,3,97,standard,PL,ba_base_pl.avi,1,j,BA,1.266Test1,3,98,standard,PL,ba_base_pl.avi,1,j,BA,1.398Test1,3,99,standard,PL,ba_base_pl.avi,1,j,BA,1.397Test1,3,100,oddball,PL,ba_redu_pl.avi,1,f,A,1.333Test2,1,1,oddball,PIX,ba_redu_pix.avi,0,j,BA,1.905Test2,1,2,oddball,PIX,ba_redu_pix.avi,0,j,BA,1.548Test2,1,3,standard,PIX,ba_base_pix.avi,1,j,BA,1.903Test2,1,4,standard,PIX,ba_base_pix.avi,1,j,BA,1.906Test2,1,5,standard,PIX,ba_base_pix.avi,1,j,BA,1.904Test2,1,6,standard,PIX,ba_base_pix.avi,1,j,BA,1.905Test2,1,7,oddball,PIX,ba_redu_pix.avi,1,f,A,1.906Test2,1,8,oddball,PIX,ba_redu_pix.avi,0,j,BA,1.907Test2,1,9,standard,PIX,ba_base_pix.avi,1,j,BA,1.907Test2,1,10,oddball,PIX,ba_redu_pix.avi,1,f,A,1.512Test2,1,11,oddball,PIX,ba_redu_pix.avi,0,j,BA,1.482Test2,1,12,standard,PIX,ba_base_pix.avi,1,j,BA,1.895Test2,1,13,standard,PIX,ba_base_pix.avi,1,j,BA,1.505Test2,1,14,standard,PIX,ba_base_pix.avi,0,f,A,1.585Test2,1,15,oddball,PIX,ba_redu_pix.avi,0,j,BA,1.44Test2,1,16,oddball,PIX,ba_redu_pix.avi,0,j,BA,1.513Test2,1,17,oddball,PIX,ba_redu_pix.avi,1,f,A,1.413Test2,1,18,standard,PIX,ba_base_pix.avi,1,j,BA,1.536Test2,1,19,oddball,PIX,ba_redu_pix.avi,1,f,A,1.55Test2,1,20,standard,PIX,ba_base_pix.avi,1,j,BA,1.373Test2,1,21,oddball,PIX,ba_redu_pix.avi,1,f,A,1.601Test2,1,22,standard,PIX,ba_base_pix.avi,1,j,BA,1.511Test2,1,23,oddball,PIX,ba_redu_pix.avi,1,f,A,1.9Test2,1,24,oddball,PIX,ba_redu_pix.avi,1,f,A,1.457Test2,1,25,oddball,PIX,ba_redu_pix.avi,0,j,BA,1.546Test2,1,26,standard,PIX,ba_base_pix.avi,1,j,BA,1.502Test2,1,27,standard,PIX,ba_base_pix.avi,1,j,BA,1.595Test2,1,28,oddball,PIX,ba_redu_pix.avi,1,f,A,1.897Test2,1,29,standard,PIX,ba_base_pix.avi,1,j,BA,1.908Test2,1,30,oddball,PIX,ba_redu_pix.avi,1,f,A,1.896Test2,1,31,standard,PIX,ba_base_pix.avi,1,j,BA,1.537Test2,1,32,oddball,PIX,ba_redu_pix.avi,1,f,A,1.517Test2,1,33,oddball,PIX,ba_redu_pix.avi,1,f,A,1.513Test2,1,34,oddball,PIX,ba_redu_pix.avi,1,f,A,1.907Test2,1,35,standard,PIX,ba_base_pix.avi,1,j,BA,1.909Test2,1,36,oddball,PIX,ba_redu_pix.avi,1,f,A,1.894Test2,1,37,oddball,PIX,ba_redu_pix.avi,1,f,A,1.593Test2,1,38,standard,PIX,ba_base_pix.avi,1,j,BA,1.582Test2,1,39,oddball,PIX,ba_redu_pix.avi,1,f,A,1.549Test2,1,40,standard,PIX,ba_base_pix.avi,1,j,BA,1.905Test2,1,41,oddball,PIX,ba_redu_pix.avi,1,f,A,1.907Test2,1,42,oddball,PIX,ba_redu_pix.avi,0,j,BA,1.58Test2,1,43,oddball,PIX,ba_redu_pix.avi,1,f,A,1.579Test2,1,44,oddball,PIX,ba_redu_pix.avi,1,f,A,1.353Test2,1,45,standard,PIX,ba_base_pix.avi,0,f,A,1.198Test2,1,46,oddball,PIX,ba_redu_pix.avi,1,f,A,1.904Test2,1,47,standard,PIX,ba_base_pix.avi,1,j,BA,1.403Test2,1,48,oddball,PIX,ba_redu_pix.avi,1,f,A,1.604Test2,1,49,standard,PIX,ba_base_pix.avi,1,j,BA,1.909Test2,1,50,oddball,PIX,ba_redu_pix.avi,1,f,A,1.899Test2,1,51,oddball,PIX,ba_redu_pix.avi,1,f,A,1.908Test2,1,52,standard,PIX,ba_base_pix.avi,1,j,BA,1.572Test2,1,53,oddball,PIX,ba_redu_pix.avi,1,f,A,1.307Test2,1,54,oddball,PIX,ba_redu_pix.avi,0,j,BA,1.241Test2,1,55,oddball,PIX,ba_redu_pix.avi,1,f,A,1.586Test2,1,56,standard,PIX,ba_base_pix.avi,1,j,BA,1.386Test2,1,57,oddball,PIX,ba_redu_pix.avi,1,f,A,1.551Test2,1,58,oddball,PIX,ba_redu_pix.avi,1,f,A,1.901Test2,1,59,standard,PIX,ba_base_pix.avi,1,j,BA,1.559Test2,1,60,oddball,PIX,ba_redu_pix.avi,1,f,A,1.48Test2,1,61,standard,PIX,ba_base_pix.avi,1,j,BA,1.905Test2,1,62,oddball,PIX,ba_redu_pix.avi,1,f,A,1.402Test2,1,63,oddball,PIX,ba_redu_pix.avi,0,j,BA,1.901Test2,1,64,standard,PIX,ba_base_pix.avi,1,j,BA,1.468Test2,1,65,oddball,PIX,ba_redu_pix.avi,1,f,A,1.335Test2,1,66,oddball,PIX,ba_redu_pix.avi,0,j,BA,1.367Test2,1,67,oddball,PIX,ba_redu_pix.avi,1,f,A,1.509Test2,1,68,standard,PIX,ba_base_pix.avi,1,j,BA,1.521Test2,1,69,standard,PIX,ba_base_pix.avi,0,f,A,1.517Test2,1,70,oddball,PIX,ba_redu_pix.avi,1,f,A,1.525Test2,1,71,standard,PIX,ba_base_pix.avi,1,j,BA,1.477Test2,1,72,standard,PIX,ba_base_pix.avi,1,j,BA,1.9Test2,1,73,standard,PIX,ba_base_pix.avi,1,j,BA,1.474Test2,1,74,oddball,PIX,ba_redu_pix.avi,1,f,A,1.905Test2,1,75,oddball,PIX,ba_redu_pix.avi,1,f,A,1.9Test2,1,76,standard,PIX,ba_base_pix.avi,1,j,BA,1.907Test2,1,77,oddball,PIX,ba_redu_pix.avi,1,f,A,1.469Test2,1,78,oddball,PIX,ba_redu_pix.avi,0,j,BA,1.3Test2,1,79,oddball,PIX,ba_redu_pix.avi,0,j,BA,1.905Test2,1,80,standard,PIX,ba_base_pix.avi,1,j,BA,1.595Test2,1,81,standard,PIX,ba_base_pix.avi,1,j,BA,1.899Test2,1,82,standard,PIX,ba_base_pix.avi,1,j,BA,1.514Test2,1,83,standard,PIX,ba_base_pix.avi,1,j,BA,1.603Test2,1,84,standard,PIX,ba_base_pix.avi,1,j,BA,1.37Test2,1,85,oddball,PIX,ba_redu_pix.avi,1,f,A,1.304Test2,1,86,oddball,PIX,ba_redu_pix.avi,0,j,BA,1.907Test2,1,87,standard,PIX,ba_base_pix.avi,1,j,BA,1.894Test2,1,88,standard,PIX,ba_base_pix.avi,1,j,BA,1.48Test2,1,89,standard,PIX,ba_base_pix.avi,1,j,BA,1.4Test2,1,90,standard,PIX,ba_base_pix.avi,1,j,BA,1.473Test2,1,91,standard,PIX,ba_base_pix.avi,1,j,BA,1.439Test2,1,92,standard,PIX,ba_base_pix.avi,1,j,BA,1.491Test2,1,93,standard,PIX,ba_base_pix.avi,1,j,BA,1.351Test2,1,94,oddball,PIX,ba_redu_pix.avi,1,f,A,1.423Test2,1,95,standard,PIX,ba_base_pix.avi,1,j,BA,1.414Test2,1,96,standard,PIX,ba_base_pix.avi,1,j,BA,1.904Test2,1,97,standard,PIX,ba_base_pix.avi,1,j,BA,1.477Test2,1,98,standard,PIX,ba_base_pix.avi,1,j,BA,1.271Test2,1,99,standard,PIX,ba_base_pix.avi,1,j,BA,1.345Test2,1,100,standard,PIX,ba_base_pix.avi,1,j,BA,1.331Test2,2,1,standard,AV,ba_base_face.avi,0,none,none,999Test2,2,2,oddball,AV,ba_redu_face.avi,0,j,BA,0.101Test2,2,3,standard,AV,ba_base_face.avi,1,j,BA,0.164Test2,2,4,oddball,AV,ba_redu_face.avi,0,j,BA,1.995Test2,2,5,oddball,AV,ba_redu_face.avi,0,j,BA,1.592Test2,2,6,oddball,AV,ba_redu_face.avi,0,j,BA,1.925Test2,2,7,oddball,AV,ba_redu_face.avi,0,j,BA,1.331Test2,2,8,standard,AV,ba_base_face.avi,1,j,BA,1.499Test2,2,9,standard,AV,ba_base_face.avi,1,j,BA,1.304Test2,2,10,oddball,AV,ba_redu_face.avi,0,j,BA,1.297Test2,2,11,standard,AV,ba_base_face.avi,1,j,BA,1.263Test2,2,12,oddball,AV,ba_redu_face.avi,0,j,BA,1.398Test2,2,13,oddball,AV,ba_redu_face.avi,0,j,BA,1.403Test2,2,14,standard,AV,ba_base_face.avi,1,j,BA,1.321Test2,2,15,oddball,AV,ba_redu_face.avi,0,j,BA,1.562Test2,2,16,standard,AV,ba_base_face.avi,1,j,BA,1.334Test2,2,17,oddball,AV,ba_redu_face.avi,0,j,BA,1.199Test2,2,18,standard,AV,ba_base_face.avi,1,j,BA,1.466Test2,2,19,oddball,AV,ba_redu_face.avi,0,none,none,999Test2,2,20,standard,AV,ba_base_face.avi,1,j,BA,1.921Test2,2,21,standard,AV,ba_base_face.avi,1,j,BA,1.529Test2,2,22,oddball,AV,ba_redu_face.avi,0,none,none,999Test2,2,23,standard,AV,ba_base_face.avi,0,f,A,0.494Test2,2,24,standard,AV,ba_base_face.avi,1,j,BA,1.925Test2,2,25,oddball,AV,ba_redu_face.avi,1,f,A,1.923Test2,2,26,oddball,AV,ba_redu_face.avi,1,f,A,1.92Test2,2,27,oddball,AV,ba_redu_face.avi,1,f,A,1.915Test2,2,28,oddball,AV,ba_redu_face.avi,0,j,BA,1.404Test2,2,29,oddball,AV,ba_redu_face.avi,1,f,A,1.919Test2,2,30,standard,AV,ba_base_face.avi,1,j,BA,1.398Test2,2,31,oddball,AV,ba_redu_face.avi,1,f,A,1.275Test2,2,32,standard,AV,ba_base_face.avi,1,j,BA,1.566Test2,2,33,standard,AV,ba_base_face.avi,1,j,BA,1.328Test2,2,34,oddball,AV,ba_redu_face.avi,0,none,none,999Test2,2,35,standard,AV,ba_base_face.avi,1,j,BA,0.001Test2,2,36,standard,AV,ba_base_face.avi,1,j,BA,1.598Test2,2,37,standard,AV,ba_base_face.avi,1,j,BA,1.607Test2,2,38,standard,AV,ba_base_face.avi,1,j,BA,1.398Test2,2,39,oddball,AV,ba_redu_face.avi,0,j,BA,1.157Test2,2,40,standard,AV,ba_base_face.avi,1,j,BA,1.42Test2,2,41,oddball,AV,ba_redu_face.avi,0,j,BA,1.499Test2,2,42,standard,AV,ba_base_face.avi,1,j,BA,1.399Test2,2,43,oddball,AV,ba_redu_face.avi,1,f,A,1.469Test2,2,44,oddball,AV,ba_redu_face.avi,1,f,A,1.366Test2,2,45,oddball,AV,ba_redu_face.avi,1,f,A,0.997Test2,2,46,standard,AV,ba_base_face.avi,0,f,A,1.201Test2,2,47,oddball,AV,ba_redu_face.avi,0,j,BA,1.609Test2,2,48,standard,AV,ba_base_face.avi,0,f,A,0.866Test2,2,49,standard,AV,ba_base_face.avi,1,j,BA,1.497Test2,2,50,oddball,AV,ba_redu_face.avi,0,j,BA,1.493Test2,2,51,standard,AV,ba_base_face.avi,1,j,BA,1.53Test2,2,52,oddball,AV,ba_redu_face.avi,1,f,A,1.406Test2,2,53,standard,AV,ba_base_face.avi,1,j,BA,1.913Test2,2,54,standard,AV,ba_base_face.avi,1,j,BA,1.599Test2,2,55,standard,AV,ba_base_face.avi,1,j,BA,1.501Test2,2,56,standard,AV,ba_base_face.avi,1,j,BA,1.327Test2,2,57,standard,AV,ba_base_face.avi,1,j,BA,1.205Test2,2,58,oddball,AV,ba_redu_face.avi,0,j,BA,0.868Test2,2,59,standard,AV,ba_base_face.avi,1,j,BA,1.33Test2,2,60,standard,AV,ba_base_face.avi,1,j,BA,1.302Test2,2,61,standard,AV,ba_base_face.avi,0,f,A,1.539Test2,2,62,oddball,AV,ba_redu_face.avi,0,j,BA,0.165Test2,2,63,standard,AV,ba_base_face.avi,0,none,none,999Test2,2,64,oddball,AV,ba_redu_face.avi,1,f,A,1.925Test2,2,65,standard,AV,ba_base_face.avi,1,j,BA,1.424Test2,2,66,oddball,AV,ba_redu_face.avi,1,f,A,1.922Test2,2,67,oddball,AV,ba_redu_face.avi,0,j,BA,1.368Test2,2,68,standard,AV,ba_base_face.avi,1,j,BA,1.567Test2,2,69,standard,AV,ba_base_face.avi,1,j,BA,1.612Test2,2,70,oddball,AV,ba_redu_face.avi,1,f,A,1.916Test2,2,71,oddball,AV,ba_redu_face.avi,0,j,BA,1.925Test2,2,72,standard,AV,ba_base_face.avi,1,j,BA,1.524Test2,2,73,standard,AV,ba_base_face.avi,1,j,BA,1.911Test2,2,74,oddball,AV,ba_redu_face.avi,1,f,A,1.922Test2,2,75,oddball,AV,ba_redu_face.avi,1,f,A,1.92Test2,2,76,oddball,AV,ba_redu_face.avi,1,f,A,1.921Test2,2,77,oddball,AV,ba_redu_face.avi,0,j,BA,1.922Test2,2,78,standard,AV,ba_base_face.avi,1,j,BA,1.932Test2,2,79,standard,AV,ba_base_face.avi,0,none,none,999Test2,2,80,oddball,AV,ba_redu_face.avi,0,j,BA,0.001Test2,2,81,standard,AV,ba_base_face.avi,1,j,BA,2.098Test2,2,82,standard,AV,ba_base_face.avi,1,j,BA,1.915Test2,2,83,oddball,AV,ba_redu_face.avi,1,f,A,1.918Test2,2,84,standard,AV,ba_base_face.avi,1,j,BA,1.962Test2,2,85,oddball,AV,ba_redu_face.avi,0,none,none,999Test2,2,86,oddball,AV,ba_redu_face.avi,1,f,A,1.977Test2,2,87,standard,AV,ba_base_face.avi,1,j,BA,1.92Test2,2,88,standard,AV,ba_base_face.avi,1,j,BA,1.919Test2,2,89,oddball,AV,ba_redu_face.avi,1,f,A,1.918Test2,2,90,standard,AV,ba_base_face.avi,1,j,BA,1.919Test2,2,91,oddball,AV,ba_redu_face.avi,0,none,none,999Test2,2,92,oddball,AV,ba_redu_face.avi,1,f,A,0.001Test2,2,93,oddball,AV,ba_redu_face.avi,1,f,A,1.496Test2,2,94,oddball,AV,ba_redu_face.avi,1,f,A,1.533Test2,2,95,standard,AV,ba_base_face.avi,1,j,BA,1.915Test2,2,96,oddball,AV,ba_redu_face.avi,1,f,A,1.362Test2,2,97,standard,AV,ba_base_face.avi,1,j,BA,1.464Test2,2,98,standard,AV,ba_base_face.avi,1,j,BA,1.92Test2,2,99,oddball,AV,ba_redu_face.avi,1,f,A,1.563Test2,2,100,oddball,AV,ba_redu_face.avi,1,f,A,1.919Test2,3,1,oddball,PL,ba_redu_pl.avi,1,f,A,2.025Test2,3,2,oddball,PL,ba_redu_pl.avi,1,f,A,1.913Test2,3,3,standard,PL,ba_base_pl.avi,0,none,none,999Test2,3,4,oddball,PL,ba_redu_pl.avi,0,j,BA,0.001Test2,3,5,standard,PL,ba_base_pl.avi,1,j,BA,1.848Test2,3,6,oddball,PL,ba_redu_pl.avi,1,f,A,1.985Test2,3,7,standard,PL,ba_base_pl.avi,1,j,BA,1.843Test2,3,8,oddball,PL,ba_redu_pl.avi,1,f,A,1.503Test2,3,9,oddball,PL,ba_redu_pl.avi,1,f,A,1.844Test2,3,10,standard,PL,ba_base_pl.avi,1,j,BA,1.931Test2,3,11,oddball,PL,ba_redu_pl.avi,1,f,A,1.858Test2,3,12,standard,PL,ba_base_pl.avi,1,j,BA,1.983Test2,3,13,oddball,PL,ba_redu_pl.avi,1,f,A,1.973Test2,3,14,oddball,PL,ba_redu_pl.avi,1,f,A,1.86Test2,3,15,oddball,PL,ba_redu_pl.avi,1,f,A,1.856Test2,3,16,oddball,PL,ba_redu_pl.avi,1,f,A,1.846Test2,3,17,oddball,PL,ba_redu_pl.avi,1,f,A,1.849Test2,3,18,oddball,PL,ba_redu_pl.avi,1,f,A,1.843Test2,3,19,oddball,PL,ba_redu_pl.avi,1,f,A,1.845Test2,3,20,standard,PL,ba_base_pl.avi,1,j,BA,1.856Test2,3,21,oddball,PL,ba_redu_pl.avi,1,f,A,1.853Test2,3,22,oddball,PL,ba_redu_pl.avi,1,f,A,1.859Test2,3,23,standard,PL,ba_base_pl.avi,1,j,BA,1.849Test2,3,24,standard,PL,ba_base_pl.avi,1,j,BA,1.535Test2,3,25,oddball,PL,ba_redu_pl.avi,1,f,A,1.852Test2,3,26,oddball,PL,ba_redu_pl.avi,1,f,A,1.535Test2,3,27,oddball,PL,ba_redu_pl.avi,1,f,A,1.533Test2,3,28,standard,PL,ba_base_pl.avi,1,j,BA,1.845Test2,3,29,oddball,PL,ba_redu_pl.avi,1,f,A,1.844Test2,3,30,standard,PL,ba_base_pl.avi,1,j,BA,1.857Test2,3,31,standard,PL,ba_base_pl.avi,1,j,BA,1.859Test2,3,32,oddball,PL,ba_redu_pl.avi,1,f,A,1.537Test2,3,33,oddball,PL,ba_redu_pl.avi,0,none,none,999Test2,3,34,standard,PL,ba_base_pl.avi,0,f,A,0.001Test2,3,35,standard,PL,ba_base_pl.avi,1,j,BA,1.845Test2,3,36,standard,PL,ba_base_pl.avi,1,j,BA,1.856Test2,3,37,standard,PL,ba_base_pl.avi,1,j,BA,1.843Test2,3,38,standard,PL,ba_base_pl.avi,1,j,BA,1.855Test2,3,39,standard,PL,ba_base_pl.avi,1,j,BA,1.548Test2,3,40,standard,PL,ba_base_pl.avi,1,j,BA,1.853Test2,3,41,oddball,PL,ba_redu_pl.avi,1,f,A,1.843Test2,3,42,oddball,PL,ba_redu_pl.avi,1,f,A,1.858Test2,3,43,oddball,PL,ba_redu_pl.avi,1,f,A,1.491Test2,3,44,oddball,PL,ba_redu_pl.avi,1,f,A,1.859Test2,3,45,standard,PL,ba_base_pl.avi,1,j,BA,1.846Test2,3,46,standard,PL,ba_base_pl.avi,1,j,BA,1.857Test2,3,47,oddball,PL,ba_redu_pl.avi,1,f,A,1.856Test2,3,48,standard,PL,ba_base_pl.avi,1,j,BA,1.852Test2,3,49,oddball,PL,ba_redu_pl.avi,1,f,A,1.857Test2,3,50,standard,PL,ba_base_pl.avi,1,j,BA,1.859Test2,3,51,standard,PL,ba_base_pl.avi,0,none,none,999Test2,3,52,standard,PL,ba_base_pl.avi,0,f,A,0.001Test2,3,53,standard,PL,ba_base_pl.avi,1,j,BA,1.503Test2,3,54,oddball,PL,ba_redu_pl.avi,0,d,none,1.854Test2,3,55,oddball,PL,ba_redu_pl.avi,1,f,A,0.001Test2,3,56,standard,PL,ba_base_pl.avi,1,j,BA,1.876Test2,3,57,oddball,PL,ba_redu_pl.avi,1,f,A,1.852Test2,3,58,oddball,PL,ba_redu_pl.avi,1,f,A,1.501Test2,3,59,standard,PL,ba_base_pl.avi,1,j,BA,1.848Test2,3,60,standard,PL,ba_base_pl.avi,0,none,none,999Test2,3,61,standard,PL,ba_base_pl.avi,1,j,BA,0.367Test2,3,62,standard,PL,ba_base_pl.avi,1,j,BA,1.471Test2,3,63,standard,PL,ba_base_pl.avi,1,j,BA,1.844Test2,3,64,oddball,PL,ba_redu_pl.avi,1,f,A,1.843Test2,3,65,oddball,PL,ba_redu_pl.avi,1,f,A,1.845Test2,3,66,standard,PL,ba_base_pl.avi,1,j,BA,1.859Test2,3,67,oddball,PL,ba_redu_pl.avi,1,f,A,1.859Test2,3,68,standard,PL,ba_base_pl.avi,1,j,BA,1.859Test2,3,69,standard,PL,ba_base_pl.avi,1,j,BA,1.858Test2,3,70,standard,PL,ba_base_pl.avi,1,j,BA,1.849Test2,3,71,standard,PL,ba_base_pl.avi,1,j,BA,1.855Test2,3,72,oddball,PL,ba_redu_pl.avi,1,f,A,1.852Test2,3,73,oddball,PL,ba_redu_pl.avi,1,f,A,1.928Test2,3,74,standard,PL,ba_base_pl.avi,1,j,BA,1.901Test2,3,75,standard,PL,ba_base_pl.avi,1,j,BA,1.859Test2,3,76,oddball,PL,ba_redu_pl.avi,1,f,A,1.857Test2,3,77,oddball,PL,ba_redu_pl.avi,1,f,A,1.847Test2,3,78,oddball,PL,ba_redu_pl.avi,1,f,A,1.858Test2,3,79,standard,PL,ba_base_pl.avi,1,j,BA,1.956Test2,3,80,standard,PL,ba_base_pl.avi,1,j,BA,1.855Test2,3,81,standard,PL,ba_base_pl.avi,1,j,BA,1.851Test2,3,82,standard,PL,ba_base_pl.avi,1,j,BA,1.844Test2,3,83,oddball,PL,ba_redu_pl.avi,1,f,A,1.853Test2,3,84,oddball,PL,ba_redu_pl.avi,1,f,A,1.858Test2,3,85,standard,PL,ba_base_pl.avi,1,j,BA,1.855Test2,3,86,oddball,PL,ba_redu_pl.avi,1,f,A,1.856Test2,3,87,standard,PL,ba_base_pl.avi,1,j,BA,1.898Test2,3,88,standard,PL,ba_base_pl.avi,1,j,BA,1.859Test2,3,89,oddball,PL,ba_redu_pl.avi,1,f,A,1.856Test2,3,90,oddball,PL,ba_redu_pl.avi,1,f,A,1.859Test2,3,91,standard,PL,ba_base_pl.avi,1,j,BA,1.43Test2,3,92,oddball,PL,ba_redu_pl.avi,1,f,A,1.846Test2,3,93,oddball,PL,ba_redu_pl.avi,1,f,A,2.029Test2,3,94,oddball,PL,ba_redu_pl.avi,1,f,A,1.858Test2,3,95,standard,PL,ba_base_pl.avi,1,j,BA,1.849Test2,3,96,oddball,PL,ba_redu_pl.avi,1,f,A,1.844Test2,3,97,standard,PL,ba_base_pl.avi,1,j,BA,1.848Test2,3,98,standard,PL,ba_base_pl.avi,0,none,none,999Test2,3,99,standard,PL,ba_base_pl.avi,1,j,BA,0.087Test2,3,100,oddball,PL,ba_redu_pl.avi,1,f,A,1.858Test3,1,1,oddball,PL,ba_redu_pl.avi,0,none,none,999Test3,1,2,standard,PL,ba_base_pl.avi,0,none,none,999Test3,1,3,standard,PL,ba_base_pl.avi,1,j,BA,1.293Test3,1,4,standard,PL,ba_base_pl.avi,0,none,none,999Test3,1,5,oddball,PL,ba_redu_pl.avi,0,j,BA,0.056Test3,1,6,standard,PL,ba_base_pl.avi,0,none,none,999Test3,1,7,oddball,PL,ba_redu_pl.avi,1,f,A,0.057Test3,1,8,standard,PL,ba_base_pl.avi,1,j,BA,1.848Test3,1,9,oddball,PL,ba_redu_pl.avi,0,j,BA,1.849Test3,1,10,oddball,PL,ba_redu_pl.avi,1,f,A,1.846Test3,1,11,standard,PL,ba_base_pl.avi,1,j,BA,1.846Test3,1,12,standard,PL,ba_base_pl.avi,1,j,BA,1.85Test3,1,13,oddball,PL,ba_redu_pl.avi,0,j,BA,1.894Test3,1,14,standard,PL,ba_base_pl.avi,1,j,BA,1.848Test3,1,15,standard,PL,ba_base_pl.avi,0,f,A,1.905Test3,1,16,oddball,PL,ba_redu_pl.avi,1,f,A,1.845Test3,1,17,standard,PL,ba_base_pl.avi,1,j,BA,1.846Test3,1,18,standard,PL,ba_base_pl.avi,1,j,BA,1.845Test3,1,19,standard,PL,ba_base_pl.avi,1,j,BA,1.848Test3,1,20,standard,PL,ba_base_pl.avi,1,j,BA,1.846Test3,1,21,oddball,PL,ba_redu_pl.avi,0,j,BA,1.847Test3,1,22,standard,PL,ba_base_pl.avi,1,j,BA,1.85Test3,1,23,oddball,PL,ba_redu_pl.avi,1,f,A,1.845Test3,1,24,oddball,PL,ba_redu_pl.avi,1,f,A,1.54Test3,1,25,standard,PL,ba_base_pl.avi,1,j,BA,1.849Test3,1,26,standard,PL,ba_base_pl.avi,1,j,BA,1.852Test3,1,27,oddball,PL,ba_redu_pl.avi,1,f,A,1.849Test3,1,28,oddball,PL,ba_redu_pl.avi,0,j,BA,1.848Test3,1,29,oddball,PL,ba_redu_pl.avi,0,j,BA,1.845Test3,1,30,oddball,PL,ba_redu_pl.avi,0,j,BA,1.849Test3,1,31,oddball,PL,ba_redu_pl.avi,1,f,A,1.846Test3,1,32,oddball,PL,ba_redu_pl.avi,1,f,A,1.848Test3,1,33,oddball,PL,ba_redu_pl.avi,0,j,BA,1.848Test3,1,34,oddball,PL,ba_redu_pl.avi,1,f,A,1.847Test3,1,35,oddball,PL,ba_redu_pl.avi,0,j,BA,2.002Test3,1,36,standard,PL,ba_base_pl.avi,1,j,BA,1.847Test3,1,37,standard,PL,ba_base_pl.avi,1,j,BA,1.848Test3,1,38,oddball,PL,ba_redu_pl.avi,0,j,BA,1.847Test3,1,39,standard,PL,ba_base_pl.avi,1,j,BA,1.849Test3,1,40,standard,PL,ba_base_pl.avi,1,j,BA,1.847Test3,1,41,oddball,PL,ba_redu_pl.avi,1,f,A,1.848Test3,1,42,oddball,PL,ba_redu_pl.avi,1,f,A,1.849Test3,1,43,standard,PL,ba_base_pl.avi,1,j,BA,1.851Test3,1,44,oddball,PL,ba_redu_pl.avi,1,f,A,1.851Test3,1,45,standard,PL,ba_base_pl.avi,1,j,BA,1.85Test3,1,46,standard,PL,ba_base_pl.avi,1,j,BA,1.85Test3,1,47,standard,PL,ba_base_pl.avi,1,j,BA,1.533Test3,1,48,standard,PL,ba_base_pl.avi,1,j,BA,1.85Test3,1,49,standard,PL,ba_base_pl.avi,1,j,BA,1.849Test3,1,50,standard,PL,ba_base_pl.avi,1,j,BA,1.847Test3,1,51,oddball,PL,ba_redu_pl.avi,1,f,A,1.848Test3,1,52,standard,PL,ba_base_pl.avi,1,j,BA,1.849Test3,1,53,oddball,PL,ba_redu_pl.avi,1,f,A,1.847Test3,1,54,oddball,PL,ba_redu_pl.avi,0,j,BA,1.89Test3,1,55,oddball,PL,ba_redu_pl.avi,0,j,BA,1.528Test3,1,56,standard,PL,ba_base_pl.avi,1,j,BA,1.528Test3,1,57,standard,PL,ba_base_pl.avi,1,j,BA,1.847Test3,1,58,standard,PL,ba_base_pl.avi,1,j,BA,1.85Test3,1,59,standard,PL,ba_base_pl.avi,1,j,BA,1.851Test3,1,60,standard,PL,ba_base_pl.avi,1,j,BA,1.845Test3,1,61,standard,PL,ba_base_pl.avi,1,j,BA,1.851Test3,1,62,oddball,PL,ba_redu_pl.avi,1,f,A,1.851Test3,1,63,oddball,PL,ba_redu_pl.avi,1,f,A,1.85Test3,1,64,standard,PL,ba_base_pl.avi,1,j,BA,1.847Test3,1,65,oddball,PL,ba_redu_pl.avi,1,f,A,1.852Test3,1,66,standard,PL,ba_base_pl.avi,1,j,BA,1.537Test3,1,67,oddball,PL,ba_redu_pl.avi,1,f,A,1.849Test3,1,68,oddball,PL,ba_redu_pl.avi,1,f,A,1.859Test3,1,69,standard,PL,ba_base_pl.avi,1,j,BA,1.853Test3,1,70,standard,PL,ba_base_pl.avi,1,j,BA,1.849Test3,1,71,oddball,PL,ba_redu_pl.avi,1,f,A,1.847Test3,1,72,standard,PL,ba_base_pl.avi,1,j,BA,1.847Test3,1,73,oddball,PL,ba_redu_pl.avi,0,none,none,999Test3,1,74,oddball,PL,ba_redu_pl.avi,1,f,A,-0.251Test3,1,75,oddball,PL,ba_redu_pl.avi,0,j,BA,1.86Test3,1,76,oddball,PL,ba_redu_pl.avi,0,j,BA,1.528Test3,1,77,oddball,PL,ba_redu_pl.avi,0,j,BA,1.536Test3,1,78,oddball,PL,ba_redu_pl.avi,1,f,A,1.538Test3,1,79,standard,PL,ba_base_pl.avi,1,j,BA,1.847Test3,1,80,standard,PL,ba_base_pl.avi,1,j,BA,1.844Test3,1,81,standard,PL,ba_base_pl.avi,1,j,BA,1.536Test3,1,82,oddball,PL,ba_redu_pl.avi,1,f,A,1.849Test3,1,83,oddball,PL,ba_redu_pl.avi,1,f,A,1.846Test3,1,84,standard,PL,ba_base_pl.avi,1,j,BA,1.47Test3,1,85,oddball,PL,ba_redu_pl.avi,1,f,A,1.968Test3,1,86,standard,PL,ba_base_pl.avi,1,j,BA,1.849Test3,1,87,standard,PL,ba_base_pl.avi,1,j,BA,1.85Test3,1,88,standard,PL,ba_base_pl.avi,1,j,BA,1.843Test3,1,89,standard,PL,ba_base_pl.avi,1,j,BA,1.848Test3,1,90,standard,PL,ba_base_pl.avi,1,j,BA,1.849Test3,1,91,oddball,PL,ba_redu_pl.avi,0,j,BA,1.848Test3,1,92,oddball,PL,ba_redu_pl.avi,1,f,A,1.847Test3,1,93,oddball,PL,ba_redu_pl.avi,1,f,A,1.846Test3,1,94,standard,PL,ba_base_pl.avi,1,j,BA,1.849Test3,1,95,oddball,PL,ba_redu_pl.avi,1,f,A,1.541Test3,1,96,oddball,PL,ba_redu_pl.avi,1,f,A,1.846Test3,1,97,oddball,PL,ba_redu_pl.avi,1,f,A,1.459Test3,1,98,standard,PL,ba_base_pl.avi,1,j,BA,1.848Test3,1,99,oddball,PL,ba_redu_pl.avi,1,f,A,2.035Test3,1,100,oddball,PL,ba_redu_pl.avi,1,f,A,1.849Test3,2,1,standard,AV,ba_base_face.avi,1,j,BA,1.917Test3,2,2,oddball,AV,ba_redu_face.avi,0,j,BA,1.911Test3,2,3,standard,AV,ba_base_face.avi,1,j,BA,1.91Test3,2,4,oddball,AV,ba_redu_face.avi,0,j,BA,1.912Test3,2,5,oddball,AV,ba_redu_face.avi,0,j,BA,1.909Test3,2,6,standard,AV,ba_base_face.avi,1,j,BA,1.91Test3,2,7,oddball,AV,ba_redu_face.avi,0,j,BA,1.909Test3,2,8,standard,AV,ba_base_face.avi,0,f,A,1.908Test3,2,9,oddball,AV,ba_redu_face.avi,1,f,A,1.923Test3,2,10,oddball,AV,ba_redu_face.avi,0,j,BA,1.566Test3,2,11,standard,AV,ba_base_face.avi,1,j,BA,1.555Test3,2,12,standard,AV,ba_base_face.avi,1,j,BA,1.909Test3,2,13,oddball,AV,ba_redu_face.avi,1,f,A,1.589Test3,2,14,oddball,AV,ba_redu_face.avi,0,none,none,999Test3,2,15,oddball,AV,ba_redu_face.avi,1,f,A,-0.226Test3,2,16,oddball,AV,ba_redu_face.avi,0,j,BA,1.91Test3,2,17,standard,AV,ba_base_face.avi,1,j,BA,1.91Test3,2,18,oddball,AV,ba_redu_face.avi,0,j,BA,1.921Test3,2,19,standard,AV,ba_base_face.avi,1,j,BA,1.924Test3,2,20,oddball,AV,ba_redu_face.avi,1,f,A,1.912Test3,2,21,oddball,AV,ba_redu_face.avi,0,j,BA,1.92Test3,2,22,oddball,AV,ba_redu_face.avi,0,j,BA,1.461Test3,2,23,standard,AV,ba_base_face.avi,1,j,BA,1.91Test3,2,24,oddball,AV,ba_redu_face.avi,0,j,BA,1.576Test3,2,25,standard,AV,ba_base_face.avi,1,j,BA,1.909Test3,2,26,standard,AV,ba_base_face.avi,1,j,BA,1.601Test3,2,27,oddball,AV,ba_redu_face.avi,1,f,A,1.909Test3,2,28,oddball,AV,ba_redu_face.avi,1,f,A,1.91Test3,2,29,standard,AV,ba_base_face.avi,0,f,A,1.923Test3,2,30,standard,AV,ba_base_face.avi,1,j,BA,1.585Test3,2,31,oddball,AV,ba_redu_face.avi,1,f,A,1.925Test3,2,32,oddball,AV,ba_redu_face.avi,1,f,A,1.91Test3,2,33,oddball,AV,ba_redu_face.avi,0,j,BA,1.909Test3,2,34,oddball,AV,ba_redu_face.avi,0,j,BA,1.601Test3,2,35,oddball,AV,ba_redu_face.avi,1,f,A,1.601Test3,2,36,standard,AV,ba_base_face.avi,1,j,BA,1.464Test3,2,37,standard,AV,ba_base_face.avi,1,j,BA,1.919Test3,2,38,standard,AV,ba_base_face.avi,1,j,BA,1.455Test3,2,39,standard,AV,ba_base_face.avi,1,j,BA,1.921Test3,2,40,oddball,AV,ba_redu_face.avi,1,f,A,2.071Test3,2,41,standard,AV,ba_base_face.avi,1,j,BA,1.556Test3,2,42,standard,AV,ba_base_face.avi,1,j,BA,1.909Test3,2,43,oddball,AV,ba_redu_face.avi,0,j,BA,1.924Test3,2,44,oddball,AV,ba_redu_face.avi,1,f,A,1.912Test3,2,45,standard,AV,ba_base_face.avi,1,j,BA,1.57Test3,2,46,oddball,AV,ba_redu_face.avi,0,none,none,999Test3,2,47,oddball,AV,ba_redu_face.avi,1,f,A,0.001Test3,2,48,standard,AV,ba_base_face.avi,1,j,BA,1.599Test3,2,49,standard,AV,ba_base_face.avi,1,j,BA,1.91Test3,2,50,standard,AV,ba_base_face.avi,1,j,BA,1.918Test3,2,51,standard,AV,ba_base_face.avi,1,j,BA,1.584Test3,2,52,standard,AV,ba_base_face.avi,1,j,BA,1.52Test3,2,53,oddball,AV,ba_redu_face.avi,0,j,BA,1.493Test3,2,54,oddball,AV,ba_redu_face.avi,1,f,A,1.522Test3,2,55,standard,AV,ba_base_face.avi,1,j,BA,1.909Test3,2,56,oddball,AV,ba_redu_face.avi,0,j,BA,2.055Test3,2,57,oddball,AV,ba_redu_face.avi,0,j,BA,1.924Test3,2,58,oddball,AV,ba_redu_face.avi,1,f,A,1.917Test3,2,59,oddball,AV,ba_redu_face.avi,0,j,BA,1.91Test3,2,60,oddball,AV,ba_redu_face.avi,1,f,A,1.924Test3,2,61,standard,AV,ba_base_face.avi,1,j,BA,1.923Test3,2,62,oddball,AV,ba_redu_face.avi,0,j,BA,1.924Test3,2,63,standard,AV,ba_base_face.avi,1,j,BA,2.026Test3,2,64,standard,AV,ba_base_face.avi,1,j,BA,1.91Test3,2,65,standard,AV,ba_base_face.avi,1,j,BA,1.615Test3,2,66,oddball,AV,ba_redu_face.avi,1,f,A,1.924Test3,2,67,oddball,AV,ba_redu_face.avi,1,f,A,1.91Test3,2,68,standard,AV,ba_base_face.avi,1,j,BA,1.923Test3,2,69,standard,AV,ba_base_face.avi,1,j,BA,1.917Test3,2,70,standard,AV,ba_base_face.avi,1,j,BA,1.921Test3,2,71,oddball,AV,ba_redu_face.avi,1,f,A,1.456Test3,2,72,standard,AV,ba_base_face.avi,0,f,A,1.911Test3,2,73,standard,AV,ba_base_face.avi,1,j,BA,1.584Test3,2,74,standard,AV,ba_base_face.avi,1,j,BA,1.554Test3,2,75,oddball,AV,ba_redu_face.avi,1,f,A,1.909Test3,2,76,standard,AV,ba_base_face.avi,1,j,BA,1.923Test3,2,77,oddball,AV,ba_redu_face.avi,0,j,BA,1.57Test3,2,78,oddball,AV,ba_redu_face.avi,1,f,A,1.92Test3,2,79,oddball,AV,ba_redu_face.avi,1,f,A,1.912Test3,2,80,oddball,AV,ba_redu_face.avi,0,j,BA,1.598Test3,2,81,oddball,AV,ba_redu_face.avi,0,j,BA,1.912Test3,2,82,oddball,AV,ba_redu_face.avi,1,f,A,1.916Test3,2,83,standard,AV,ba_base_face.avi,0,f,A,1.535Test3,2,84,standard,AV,ba_base_face.avi,1,j,BA,1.921Test3,2,85,standard,AV,ba_base_face.avi,1,j,BA,1.921Test3,2,86,standard,AV,ba_base_face.avi,1,j,BA,1.584Test3,2,87,standard,AV,ba_base_face.avi,0,f,A,1.555Test3,2,88,standard,AV,ba_base_face.avi,0,f,A,1.535Test3,2,89,oddball,AV,ba_redu_face.avi,1,f,A,1.556Test3,2,90,standard,AV,ba_base_face.avi,1,j,BA,1.568Test3,2,91,standard,AV,ba_base_face.avi,1,j,BA,1.595Test3,2,92,standard,AV,ba_base_face.avi,0,f,A,1.91Test3,2,93,standard,AV,ba_base_face.avi,0,f,A,1.914Test3,2,94,standard,AV,ba_base_face.avi,0,f,A,1.908Test3,2,95,oddball,AV,ba_redu_face.avi,0,j,BA,1.52Test3,2,96,oddball,AV,ba_redu_face.avi,0,j,BA,1.925Test3,2,97,oddball,AV,ba_redu_face.avi,0,j,BA,1.569Test3,2,98,standard,AV,ba_base_face.avi,1,j,BA,1.584Test3,2,99,standard,AV,ba_base_face.avi,1,j,BA,1.98Test3,2,100,oddball,AV,ba_redu_face.avi,1,f,A,1.954Test3,3,1,standard,PIX,ba_base_pix.avi,1,j,BA,2.034Test3,3,2,oddball,PIX,ba_redu_pix.avi,0,j,BA,1.92Test3,3,3,oddball,PIX,ba_redu_pix.avi,1,f,A,1.907Test3,3,4,oddball,PIX,ba_redu_pix.avi,1,f,A,1.91Test3,3,5,standard,PIX,ba_base_pix.avi,1,j,BA,1.909Test3,3,6,standard,PIX,ba_base_pix.avi,1,j,BA,1.897Test3,3,7,oddball,PIX,ba_redu_pix.avi,1,f,A,1.909Test3,3,8,standard,PIX,ba_base_pix.avi,0,none,none,999Test3,3,9,standard,PIX,ba_base_pix.avi,0,f,A,-0.325Test3,3,10,oddball,PIX,ba_redu_pix.avi,0,none,none,999Test3,3,11,standard,PIX,ba_base_pix.avi,0,f,A,1.468Test3,3,12,oddball,PIX,ba_redu_pix.avi,0,j,BA,1.538Test3,3,13,oddball,PIX,ba_redu_pix.avi,0,j,BA,1.455Test3,3,14,oddball,PIX,ba_redu_pix.avi,1,f,A,1.908Test3,3,15,standard,PIX,ba_base_pix.avi,1,j,BA,1.908Test3,3,16,standard,PIX,ba_base_pix.avi,0,f,A,1.377Test3,3,17,oddball,PIX,ba_redu_pix.avi,1,f,A,1.909Test3,3,18,oddball,PIX,ba_redu_pix.avi,1,f,A,1.909Test3,3,19,oddball,PIX,ba_redu_pix.avi,1,f,A,1.541Test3,3,20,standard,PIX,ba_base_pix.avi,1,j,BA,1.909Test3,3,21,standard,PIX,ba_base_pix.avi,1,j,BA,1.906Test3,3,22,oddball,PIX,ba_redu_pix.avi,1,f,A,1.517Test3,3,23,standard,PIX,ba_base_pix.avi,0,f,A,0.3Test3,3,24,standard,PIX,ba_base_pix.avi,1,j,BA,1.894Test3,3,25,standard,PIX,ba_base_pix.avi,1,j,BA,1.896Test3,3,26,oddball,PIX,ba_redu_pix.avi,1,f,A,1.908Test3,3,27,oddball,PIX,ba_redu_pix.avi,1,f,A,1.438Test3,3,28,standard,PIX,ba_base_pix.avi,0,none,none,999Test3,3,29,standard,PIX,ba_base_pix.avi,1,j,BA,-0.33Test3,3,30,oddball,PIX,ba_redu_pix.avi,1,f,A,1.906Test3,3,31,standard,PIX,ba_base_pix.avi,1,j,BA,1.909Test3,3,32,oddball,PIX,ba_redu_pix.avi,1,f,A,1.473Test3,3,33,standard,PIX,ba_base_pix.avi,1,j,BA,1.906Test3,3,34,oddball,PIX,ba_redu_pix.avi,1,f,A,1.573Test3,3,35,oddball,PIX,ba_redu_pix.avi,1,f,A,1.586Test3,3,36,oddball,PIX,ba_redu_pix.avi,1,f,A,1.905Test3,3,37,oddball,PIX,ba_redu_pix.avi,1,f,A,1.909Test3,3,38,oddball,PIX,ba_redu_pix.avi,1,f,A,1.91Test3,3,39,standard,PIX,ba_base_pix.avi,1,j,BA,1.908Test3,3,40,standard,PIX,ba_base_pix.avi,1,j,BA,1.552Test3,3,41,oddball,PIX,ba_redu_pix.avi,1,f,A,1.921Test3,3,42,oddball,PIX,ba_redu_pix.avi,1,f,A,1.905Test3,3,43,oddball,PIX,ba_redu_pix.avi,1,f,A,1.893Test3,3,44,oddball,PIX,ba_redu_pix.avi,1,f,A,1.909Test3,3,45,oddball,PIX,ba_redu_pix.avi,1,f,A,1.907Test3,3,46,oddball,PIX,ba_redu_pix.avi,1,f,A,1.898Test3,3,47,oddball,PIX,ba_redu_pix.avi,1,f,A,1.909Test3,3,48,standard,PIX,ba_base_pix.avi,1,j,BA,1.584Test3,3,49,oddball,PIX,ba_redu_pix.avi,1,f,A,1.894Test3,3,50,standard,PIX,ba_base_pix.avi,0,none,none,999Test3,3,51,standard,PIX,ba_base_pix.avi,0,f,A,-0.276Test3,3,52,standard,PIX,ba_base_pix.avi,1,j,BA,1.586Test3,3,53,oddball,PIX,ba_redu_pix.avi,1,f,A,2.004Test3,3,54,oddball,PIX,ba_redu_pix.avi,1,f,A,1.896Test3,3,55,oddball,PIX,ba_redu_pix.avi,1,f,A,1.909Test3,3,56,standard,PIX,ba_base_pix.avi,1,j,BA,1.903Test3,3,57,oddball,PIX,ba_redu_pix.avi,1,f,A,1.894Test3,3,58,oddball,PIX,ba_redu_pix.avi,1,f,A,1.908Test3,3,59,oddball,PIX,ba_redu_pix.avi,1,f,A,1.909Test3,3,60,oddball,PIX,ba_redu_pix.avi,1,f,A,1.906Test3,3,61,standard,PIX,ba_base_pix.avi,1,j,BA,1.909Test3,3,62,oddball,PIX,ba_redu_pix.avi,1,f,A,1.893Test3,3,63,standard,PIX,ba_base_pix.avi,1,j,BA,2.101Test3,3,64,standard,PIX,ba_base_pix.avi,0,none,none,999Test3,3,65,standard,PIX,ba_base_pix.avi,1,j,BA,0.001Test3,3,66,oddball,PIX,ba_redu_pix.avi,1,f,A,1.908Test3,3,67,standard,PIX,ba_base_pix.avi,1,j,BA,2.069Test3,3,68,standard,PIX,ba_base_pix.avi,1,j,BA,1.905Test3,3,69,oddball,PIX,ba_redu_pix.avi,1,f,A,1.895Test3,3,70,standard,PIX,ba_base_pix.avi,1,j,BA,1.539Test3,3,71,oddball,PIX,ba_redu_pix.avi,1,f,A,1.572Test3,3,72,standard,PIX,ba_base_pix.avi,1,j,BA,1.571Test3,3,73,oddball,PIX,ba_redu_pix.avi,1,f,A,1.586Test3,3,74,standard,PIX,ba_base_pix.avi,1,j,BA,1.538Test3,3,75,standard,PIX,ba_base_pix.avi,1,j,BA,1.909Test3,3,76,standard,PIX,ba_base_pix.avi,1,j,BA,1.943Test3,3,77,standard,PIX,ba_base_pix.avi,1,j,BA,1.97Test3,3,78,oddball,PIX,ba_redu_pix.avi,1,f,A,1.893Test3,3,79,oddball,PIX,ba_redu_pix.avi,0,none,none,999Test3,3,80,standard,PIX,ba_base_pix.avi,0,f,A,0.373Test3,3,81,standard,PIX,ba_base_pix.avi,1,j,BA,1.894Test3,3,82,oddball,PIX,ba_redu_pix.avi,1,f,A,1.909Test3,3,83,standard,PIX,ba_base_pix.avi,1,j,BA,1.893Test3,3,84,oddball,PIX,ba_redu_pix.avi,0,none,none,999Test3,3,85,standard,PIX,ba_base_pix.avi,0,f,A,0.063Test3,3,86,standard,PIX,ba_base_pix.avi,1,j,BA,1.897Test3,3,87,standard,PIX,ba_base_pix.avi,1,j,BA,1.907Test3,3,88,standard,PIX,ba_base_pix.avi,1,j,BA,1.902Test3,3,89,oddball,PIX,ba_redu_pix.avi,1,f,A,1.905Test3,3,90,standard,PIX,ba_base_pix.avi,1,j,BA,1.896Test3,3,91,oddball,PIX,ba_redu_pix.avi,1,f,A,2.067Test3,3,92,oddball,PIX,ba_redu_pix.avi,0,none,none,999Test3,3,93,standard,PIX,ba_base_pix.avi,0,f,A,-0.225Test3,3,94,oddball,PIX,ba_redu_pix.avi,1,f,A,1.894Test3,3,95,standard,PIX,ba_base_pix.avi,1,j,BA,2.043Test3,3,96,standard,PIX,ba_base_pix.avi,1,j,BA,2.059Test3,3,97,standard,PIX,ba_base_pix.avi,1,j,BA,1.586Test3,3,98,oddball,PIX,ba_redu_pix.avi,0,none,none,999Test3,3,99,standard,PIX,ba_base_pix.avi,1,j,BA,-0.32Test3,3,100,standard,PIX,ba_base_pix.avi,1,j,BA,1.894Test5,1,1,standard,PIX,ba_base_pix.avi,1,j,BA,2.029Test5,1,2,oddball,PIX,ba_redu_pix.avi,0,j,BA,1.513Test5,1,3,standard,PIX,ba_base_pix.avi,1,j,BA,2.092Test5,1,4,standard,PIX,ba_base_pix.avi,0,none,none,999Test5,1,5,oddball,PIX,ba_redu_pix.avi,0,j,BA,-0.368Test5,1,6,oddball,PIX,ba_redu_pix.avi,1,f,A,1.404Test5,1,7,oddball,PIX,ba_redu_pix.avi,0,j,BA,1.9Test5,1,8,standard,PIX,ba_base_pix.avi,1,j,BA,1.477Test5,1,9,oddball,PIX,ba_redu_pix.avi,1,f,A,1.388Test5,1,10,standard,PIX,ba_base_pix.avi,1,j,BA,1.9Test5,1,11,standard,PIX,ba_base_pix.avi,1,j,BA,1.926Test5,1,12,oddball,PIX,ba_redu_pix.avi,1,f,A,1.416Test5,1,13,standard,PIX,ba_base_pix.avi,1,j,BA,1.475Test5,1,14,standard,PIX,ba_base_pix.avi,1,j,BA,1.435Test5,1,15,standard,PIX,ba_base_pix.avi,1,j,BA,1.577Test5,1,16,oddball,PIX,ba_redu_pix.avi,1,f,A,1.306Test5,1,17,standard,PIX,ba_base_pix.avi,1,j,BA,1.478Test5,1,18,oddball,PIX,ba_redu_pix.avi,1,f,A,1.274Test5,1,19,standard,PIX,ba_base_pix.avi,1,j,BA,1.295Test5,1,20,oddball,PIX,ba_redu_pix.avi,1,f,A,1.35Test5,1,21,standard,PIX,ba_base_pix.avi,1,j,BA,1.342Test5,1,22,standard,PIX,ba_base_pix.avi,1,j,BA,1.371Test5,1,23,oddball,PIX,ba_redu_pix.avi,1,f,A,1.477Test5,1,24,oddball,PIX,ba_redu_pix.avi,0,j,BA,1.379Test5,1,25,standard,PIX,ba_base_pix.avi,1,j,BA,1.381Test5,1,26,standard,PIX,ba_base_pix.avi,1,j,BA,1.442Test5,1,27,standard,PIX,ba_base_pix.avi,1,j,BA,1.417Test5,1,28,standard,PIX,ba_base_pix.avi,1,j,BA,1.415Test5,1,29,standard,PIX,ba_base_pix.avi,1,j,BA,1.441Test5,1,30,oddball,PIX,ba_redu_pix.avi,1,f,A,1.307Test5,1,31,standard,PIX,ba_base_pix.avi,1,j,BA,1.405Test5,1,32,oddball,PIX,ba_redu_pix.avi,1,f,A,1.408Test5,1,33,standard,PIX,ba_base_pix.avi,1,j,BA,1.476Test5,1,34,oddball,PIX,ba_redu_pix.avi,1,f,A,1.443Test5,1,35,standard,PIX,ba_base_pix.avi,1,j,BA,1.417Test5,1,36,standard,PIX,ba_base_pix.avi,1,j,BA,1.908Test5,1,37,standard,PIX,ba_base_pix.avi,1,j,BA,1.41Test5,1,38,standard,PIX,ba_base_pix.avi,1,j,BA,1.475Test5,1,39,standard,PIX,ba_base_pix.avi,1,j,BA,1.353Test5,1,40,oddball,PIX,ba_redu_pix.avi,0,j,BA,1.485Test5,1,41,standard,PIX,ba_base_pix.avi,1,j,BA,1.51Test5,1,42,oddball,PIX,ba_redu_pix.avi,1,f,A,1.475Test5,1,43,oddball,PIX,ba_redu_pix.avi,1,f,A,1.592Test5,1,44,oddball,PIX,ba_redu_pix.avi,1,f,A,1.342Test5,1,45,oddball,PIX,ba_redu_pix.avi,1,f,A,1.505Test5,1,46,oddball,PIX,ba_redu_pix.avi,1,f,A,1.385Test5,1,47,oddball,PIX,ba_redu_pix.avi,1,f,A,1.304Test5,1,48,standard,PIX,ba_base_pix.avi,1,j,BA,1.443Test5,1,49,oddball,PIX,ba_redu_pix.avi,1,f,A,1.405Test5,1,50,standard,PIX,ba_base_pix.avi,1,j,BA,1.44Test5,1,51,standard,PIX,ba_base_pix.avi,1,j,BA,1.37Test5,1,52,oddball,PIX,ba_redu_pix.avi,1,f,A,1.347Test5,1,53,standard,PIX,ba_base_pix.avi,1,j,BA,1.409Test5,1,54,oddball,PIX,ba_redu_pix.avi,1,f,A,1.445Test5,1,55,oddball,PIX,ba_redu_pix.avi,1,f,A,1.376Test5,1,56,oddball,PIX,ba_redu_pix.avi,0,j,BA,1.344Test5,1,57,oddball,PIX,ba_redu_pix.avi,1,f,A,1.908Test5,1,58,standard,PIX,ba_base_pix.avi,0,f,A,1.344Test5,1,59,standard,PIX,ba_base_pix.avi,1,j,BA,1.896Test5,1,60,oddball,PIX,ba_redu_pix.avi,1,f,A,1.504Test5,1,61,oddball,PIX,ba_redu_pix.avi,1,f,A,1.479Test5,1,62,standard,PIX,ba_base_pix.avi,1,j,BA,1.505Test5,1,63,standard,PIX,ba_base_pix.avi,1,j,BA,1.945Test5,1,64,oddball,PIX,ba_redu_pix.avi,1,f,A,1.575Test5,1,65,standard,PIX,ba_base_pix.avi,1,j,BA,1.476Test5,1,66,oddball,PIX,ba_redu_pix.avi,1,f,A,1.382Test5,1,67,oddball,PIX,ba_redu_pix.avi,1,f,A,1.896Test5,1,68,standard,PIX,ba_base_pix.avi,1,j,BA,1.468Test5,1,69,oddball,PIX,ba_redu_pix.avi,1,f,A,1.405Test5,1,70,standard,PIX,ba_base_pix.avi,1,j,BA,1.386Test5,1,71,standard,PIX,ba_base_pix.avi,1,j,BA,1.411Test5,1,72,standard,PIX,ba_base_pix.avi,1,j,BA,1.248Test5,1,73,oddball,PIX,ba_redu_pix.avi,0,j,BA,1.347Test5,1,74,oddball,PIX,ba_redu_pix.avi,1,f,A,1.372Test5,1,75,oddball,PIX,ba_redu_pix.avi,1,f,A,1.305Test5,1,76,standard,PIX,ba_base_pix.avi,1,j,BA,1.373Test5,1,77,standard,PIX,ba_base_pix.avi,1,j,BA,1.449Test5,1,78,standard,PIX,ba_base_pix.avi,0,f,A,1.901Test5,1,79,oddball,PIX,ba_redu_pix.avi,1,f,A,1.449Test5,1,80,oddball,PIX,ba_redu_pix.avi,1,f,A,1.422Test5,1,81,oddball,PIX,ba_redu_pix.avi,1,f,A,1.407Test5,1,82,oddball,PIX,ba_redu_pix.avi,1,f,A,1.372Test5,1,83,standard,PIX,ba_base_pix.avi,1,j,BA,1.477Test5,1,84,oddball,PIX,ba_redu_pix.avi,1,f,A,1.366Test5,1,85,standard,PIX,ba_base_pix.avi,1,j,BA,1.386Test5,1,86,oddball,PIX,ba_redu_pix.avi,1,f,A,1.908Test5,1,87,standard,PIX,ba_base_pix.avi,1,j,BA,1.898Test5,1,88,oddball,PIX,ba_redu_pix.avi,1,f,A,1.897Test5,1,89,oddball,PIX,ba_redu_pix.avi,1,f,A,1.543Test5,1,90,standard,PIX,ba_base_pix.avi,1,j,BA,1.985Test5,1,91,standard,PIX,ba_base_pix.avi,1,j,BA,1.346Test5,1,92,standard,PIX,ba_base_pix.avi,1,j,BA,1.519Test5,1,93,standard,PIX,ba_base_pix.avi,1,j,BA,1.908Test5,1,94,oddball,PIX,ba_redu_pix.avi,0,j,BA,1.91Test5,1,95,oddball,PIX,ba_redu_pix.avi,1,f,A,1.371Test5,1,96,oddball,PIX,ba_redu_pix.avi,0,j,BA,1.517Test5,1,97,oddball,PIX,ba_redu_pix.avi,1,f,A,1.414Test5,1,98,oddball,PIX,ba_redu_pix.avi,1,f,A,1.544Test5,1,99,oddball,PIX,ba_redu_pix.avi,1,f,A,1.585Test5,1,100,standard,PIX,ba_base_pix.avi,1,j,BA,1.519Test5,2,1,standard,PL,ba_base_pl.avi,1,j,BA,1.996Test5,2,2,standard,PL,ba_base_pl.avi,1,j,BA,1.859Test5,2,3,standard,PL,ba_base_pl.avi,1,j,BA,1.497Test5,2,4,standard,PL,ba_base_pl.avi,1,j,BA,1.392Test5,2,5,standard,PL,ba_base_pl.avi,1,j,BA,1.334Test5,2,6,standard,PL,ba_base_pl.avi,1,j,BA,1.368Test5,2,7,oddball,PL,ba_redu_pl.avi,0,j,BA,1.368Test5,2,8,oddball,PL,ba_redu_pl.avi,1,f,A,1.357Test5,2,9,standard,PL,ba_base_pl.avi,1,j,BA,1.535Test5,2,10,oddball,PL,ba_redu_pl.avi,0,j,BA,1.492Test5,2,11,standard,PL,ba_base_pl.avi,1,j,BA,1.525Test5,2,12,standard,PL,ba_base_pl.avi,0,none,none,999Test5,2,13,standard,PL,ba_base_pl.avi,1,j,BA,-0.335Test5,2,14,standard,PL,ba_base_pl.avi,0,f,A,-0.301Test5,2,15,oddball,PL,ba_redu_pl.avi,0,j,BA,1.873Test5,2,16,oddball,PL,ba_redu_pl.avi,0,j,BA,1.467Test5,2,17,standard,PL,ba_base_pl.avi,0,f,A,1.303Test5,2,18,oddball,PL,ba_redu_pl.avi,1,f,A,0.965Test5,2,19,oddball,PL,ba_redu_pl.avi,1,f,A,1.062Test5,2,20,oddball,PL,ba_redu_pl.avi,0,j,BA,0.901Test5,2,21,standard,PL,ba_base_pl.avi,0,f,A,1.005Test5,2,22,oddball,PL,ba_redu_pl.avi,0,j,BA,0.899Test5,2,23,standard,PL,ba_base_pl.avi,0,f,A,0.535Test5,2,24,oddball,PL,ba_redu_pl.avi,1,f,A,1.848Test5,2,25,oddball,PL,ba_redu_pl.avi,0,j,BA,1.964Test5,2,26,standard,PL,ba_base_pl.avi,1,j,BA,1.5Test5,2,27,oddball,PL,ba_redu_pl.avi,0,none,none,999Test5,2,28,oddball,PL,ba_redu_pl.avi,0,j,BA,0.001Test5,2,29,standard,PL,ba_base_pl.avi,1,j,BA,0.896Test5,2,30,oddball,PL,ba_redu_pl.avi,0,none,none,999Test5,2,31,standard,PL,ba_base_pl.avi,0,f,A,-0.319Test5,2,32,standard,PL,ba_base_pl.avi,1,j,BA,1.098Test5,2,33,oddball,PL,ba_redu_pl.avi,1,f,A,1.551Test5,2,34,oddball,PL,ba_redu_pl.avi,0,j,BA,1.936Test5,2,35,standard,PL,ba_base_pl.avi,0,f,A,1.467Test5,2,36,oddball,PL,ba_redu_pl.avi,1,f,A,1.846Test5,2,37,standard,PL,ba_base_pl.avi,0,none,none,999Test5,2,38,oddball,PL,ba_redu_pl.avi,0,j,BA,0.071Test5,2,39,oddball,PL,ba_redu_pl.avi,1,f,A,1.848Test5,2,40,standard,PL,ba_base_pl.avi,1,j,BA,1.856Test5,2,41,standard,PL,ba_base_pl.avi,1,j,BA,1.548Test5,2,42,standard,PL,ba_base_pl.avi,1,j,BA,1.505Test5,2,43,standard,PL,ba_base_pl.avi,1,j,BA,1.854Test5,2,44,oddball,PL,ba_redu_pl.avi,0,none,none,999Test5,2,45,oddball,PL,ba_redu_pl.avi,0,j,BA,-0.22Test5,2,46,standard,PL,ba_base_pl.avi,1,j,BA,1.855Test5,2,47,oddball,PL,ba_redu_pl.avi,1,f,A,1.426Test5,2,48,oddball,PL,ba_redu_pl.avi,0,j,BA,1.473Test5,2,49,standard,PL,ba_base_pl.avi,1,j,BA,1.37Test5,2,50,oddball,PL,ba_redu_pl.avi,1,f,A,1.328Test5,2,51,standard,PL,ba_base_pl.avi,1,j,BA,1.364Test5,2,52,oddball,PL,ba_redu_pl.avi,1,f,A,1.33Test5,2,53,standard,PL,ba_base_pl.avi,1,j,BA,1.491Test5,2,54,oddball,PL,ba_redu_pl.avi,1,f,A,1.844Test5,2,55,standard,PL,ba_base_pl.avi,1,j,BA,1.503Test5,2,56,standard,PL,ba_base_pl.avi,1,j,BA,1.471Test5,2,57,standard,PL,ba_base_pl.avi,1,j,BA,1.859Test5,2,58,oddball,PL,ba_redu_pl.avi,1,f,A,1.335Test5,2,59,standard,PL,ba_base_pl.avi,1,j,BA,1.289Test5,2,60,oddball,PL,ba_redu_pl.avi,1,f,A,1.858Test5,2,61,standard,PL,ba_base_pl.avi,1,j,BA,2.007Test5,2,62,oddball,PL,ba_redu_pl.avi,1,f,A,1.4Test5,2,63,oddball,PL,ba_redu_pl.avi,1,f,A,1.914Test5,2,64,standard,PL,ba_base_pl.avi,0,none,none,999Test5,2,65,oddball,PL,ba_redu_pl.avi,1,f,A,0.966Test5,2,66,oddball,PL,ba_redu_pl.avi,0,none,none,999Test5,2,67,standard,PL,ba_base_pl.avi,1,j,BA,-0.245Test5,2,68,oddball,PL,ba_redu_pl.avi,1,f,A,1.464Test5,2,69,oddball,PL,ba_redu_pl.avi,0,none,none,999Test5,2,70,standard,PL,ba_base_pl.avi,0,none,none,999Test5,2,71,oddball,PL,ba_redu_pl.avi,0,j,BA,0.875Test5,2,72,oddball,PL,ba_redu_pl.avi,0,none,none,999Test5,2,73,standard,PL,ba_base_pl.avi,1,j,BA,0.001Test5,2,74,standard,PL,ba_base_pl.avi,0,none,none,999Test5,2,75,standard,PL,ba_base_pl.avi,1,j,BA,0.592Test5,2,76,oddball,PL,ba_redu_pl.avi,1,f,A,-0.331Test5,2,77,standard,PL,ba_base_pl.avi,0,none,none,999Test5,2,78,oddball,PL,ba_redu_pl.avi,0,j,BA,-0.204Test5,2,79,oddball,PL,ba_redu_pl.avi,1,f,A,1.396Test5,2,80,standard,PL,ba_base_pl.avi,0,none,none,999Test5,2,81,oddball,PL,ba_redu_pl.avi,0,j,BA,0.999Test5,2,82,oddball,PL,ba_redu_pl.avi,1,f,A,1.132Test5,2,83,standard,PL,ba_base_pl.avi,1,j,BA,1.849Test5,2,84,oddball,PL,ba_redu_pl.avi,1,f,A,1.164Test5,2,85,oddball,PL,ba_redu_pl.avi,0,j,BA,1.297Test5,2,86,standard,PL,ba_base_pl.avi,0,f,A,0.433Test5,2,87,oddball,PL,ba_redu_pl.avi,0,j,BA,1.135Test5,2,88,standard,PL,ba_base_pl.avi,0,f,A,1.069Test5,2,89,standard,PL,ba_base_pl.avi,1,j,BA,1.029Test5,2,90,standard,PL,ba_base_pl.avi,1,j,BA,1.355Test5,2,91,oddball,PL,ba_redu_pl.avi,1,f,A,1.394Test5,2,92,standard,PL,ba_base_pl.avi,1,j,BA,1.461Test5,2,93,standard,PL,ba_base_pl.avi,0,f,A,1.065Test5,2,94,oddball,PL,ba_redu_pl.avi,0,j,BA,0.939Test5,2,95,oddball,PL,ba_redu_pl.avi,1,f,A,0.896Test5,2,96,oddball,PL,ba_redu_pl.avi,0,j,BA,1.129Test5,2,97,standard,PL,ba_base_pl.avi,1,j,BA,1.303Test5,2,98,standard,PL,ba_base_pl.avi,1,j,BA,1.539Test5,2,99,oddball,PL,ba_redu_pl.avi,0,none,none,999Test5,2,100,oddball,PL,ba_redu_pl.avi,0,j,BA,-0.298Test5,3,1,standard,AV,ba_base_face.avi,1,j,BA,2.09Test5,3,2,standard,AV,ba_base_face.avi,1,j,BA,1.429Test5,3,3,standard,AV,ba_base_face.avi,1,j,BA,1.922Test5,3,4,oddball,AV,ba_redu_face.avi,0,j,BA,1.927Test5,3,5,oddball,AV,ba_redu_face.avi,1,f,A,1.494Test5,3,6,oddball,AV,ba_redu_face.avi,0,j,BA,1.426Test5,3,7,standard,AV,ba_base_face.avi,1,j,BA,1.129Test5,3,8,oddball,AV,ba_redu_face.avi,0,j,BA,1.09Test5,3,9,standard,AV,ba_base_face.avi,1,j,BA,1.432Test5,3,10,standard,AV,ba_base_face.avi,1,j,BA,1.329Test5,3,11,standard,AV,ba_base_face.avi,1,j,BA,1.456Test5,3,12,oddball,AV,ba_redu_face.avi,1,f,A,1.464Test5,3,13,standard,AV,ba_base_face.avi,1,j,BA,1.324Test5,3,14,standard,AV,ba_base_face.avi,1,j,BA,1.355Test5,3,15,oddball,AV,ba_redu_face.avi,1,f,A,1.456Test5,3,16,oddball,AV,ba_redu_face.avi,1,f,A,1.489Test5,3,17,oddball,AV,ba_redu_face.avi,1,f,A,1.358Test5,3,18,oddball,AV,ba_redu_face.avi,1,f,A,1.433Test5,3,19,standard,AV,ba_base_face.avi,1,j,BA,1.333Test5,3,20,standard,AV,ba_base_face.avi,1,j,BA,1.225Test5,3,21,standard,AV,ba_base_face.avi,1,j,BA,1.908Test5,3,22,standard,AV,ba_base_face.avi,0,f,A,1.922Test5,3,23,oddball,AV,ba_redu_face.avi,0,j,BA,1.155Test5,3,24,standard,AV,ba_base_face.avi,0,f,A,0.823Test5,3,25,standard,AV,ba_base_face.avi,1,j,BA,1.912Test5,3,26,standard,AV,ba_base_face.avi,0,f,A,1.165Test5,3,27,standard,AV,ba_base_face.avi,1,j,BA,1.055Test5,3,28,standard,AV,ba_base_face.avi,1,j,BA,1.594Test5,3,29,standard,AV,ba_base_face.avi,1,j,BA,0.97Test5,3,30,oddball,AV,ba_redu_face.avi,0,j,BA,1.028Test5,3,31,oddball,AV,ba_redu_face.avi,1,f,A,1.457Test5,3,32,oddball,AV,ba_redu_face.avi,1,f,A,1.455Test5,3,33,standard,AV,ba_base_face.avi,1,j,BA,1.358Test5,3,34,standard,AV,ba_base_face.avi,1,j,BA,1.391Test5,3,35,standard,AV,ba_base_face.avi,1,j,BA,1.534Test5,3,36,oddball,AV,ba_redu_face.avi,1,f,A,1.586Test5,3,37,standard,AV,ba_base_face.avi,1,j,BA,1.92Test5,3,38,standard,AV,ba_base_face.avi,1,j,BA,1.388Test5,3,39,standard,AV,ba_base_face.avi,1,j,BA,1.925Test5,3,40,oddball,AV,ba_redu_face.avi,0,none,none,999Test5,3,41,oddball,AV,ba_redu_face.avi,0,j,BA,0.001Test5,3,42,standard,AV,ba_base_face.avi,0,f,A,1.17Test5,3,43,standard,AV,ba_base_face.avi,1,j,BA,1.242Test5,3,44,oddball,AV,ba_redu_face.avi,0,j,BA,1.255Test5,3,45,oddball,AV,ba_redu_face.avi,1,f,A,1.525Test5,3,46,oddball,AV,ba_redu_face.avi,1,f,A,1.434Test5,3,47,oddball,AV,ba_redu_face.avi,1,f,A,1.424Test5,3,48,standard,AV,ba_base_face.avi,1,j,BA,1.493Test5,3,49,standard,AV,ba_base_face.avi,1,j,BA,1.914Test5,3,50,oddball,AV,ba_redu_face.avi,1,f,A,1.564Test5,3,51,standard,AV,ba_base_face.avi,1,j,BA,1.262Test5,3,52,oddball,AV,ba_redu_face.avi,0,j,BA,1.203Test5,3,53,oddball,AV,ba_redu_face.avi,1,f,A,1.42Test5,3,54,oddball,AV,ba_redu_face.avi,1,f,A,1.36Test5,3,55,standard,AV,ba_base_face.avi,1,j,BA,1.456Test5,3,56,oddball,AV,ba_redu_face.avi,1,f,A,1.457Test5,3,57,oddball,AV,ba_redu_face.avi,0,j,BA,1.53Test5,3,58,oddball,AV,ba_redu_face.avi,0,j,BA,1.916Test5,3,59,oddball,AV,ba_redu_face.avi,1,f,A,1.34Test5,3,60,oddball,AV,ba_redu_face.avi,0,j,BA,0.733Test5,3,61,oddball,AV,ba_redu_face.avi,1,f,A,1.914Test5,3,62,oddball,AV,ba_redu_face.avi,0,j,BA,1.335Test5,3,63,standard,AV,ba_base_face.avi,1,j,BA,0.986Test5,3,64,oddball,AV,ba_redu_face.avi,1,f,A,1.429Test5,3,65,standard,AV,ba_base_face.avi,1,j,BA,1.359Test5,3,66,standard,AV,ba_base_face.avi,1,j,BA,1.308Test5,3,67,standard,AV,ba_base_face.avi,1,j,BA,1.199Test5,3,68,standard,AV,ba_base_face.avi,1,j,BA,1.223Test5,3,69,standard,AV,ba_base_face.avi,1,j,BA,1.127Test5,3,70,oddball,AV,ba_redu_face.avi,0,j,BA,1.193Test5,3,71,standard,AV,ba_base_face.avi,1,j,BA,1.036Test5,3,72,standard,AV,ba_base_face.avi,1,j,BA,1.032Test5,3,73,oddball,AV,ba_redu_face.avi,0,j,BA,1.157Test5,3,74,oddball,AV,ba_redu_face.avi,0,j,BA,1.142Test5,3,75,oddball,AV,ba_redu_face.avi,0,j,BA,0.393Test5,3,76,standard,AV,ba_base_face.avi,1,j,BA,1.289Test5,3,77,standard,AV,ba_base_face.avi,1,j,BA,1.195Test5,3,78,oddball,AV,ba_redu_face.avi,1,f,A,1.401Test5,3,79,oddball,AV,ba_redu_face.avi,1,f,A,1.917Test5,3,80,standard,AV,ba_base_face.avi,0,f,A,1.525Test5,3,81,standard,AV,ba_base_face.avi,1,j,BA,1.536Test5,3,82,oddball,AV,ba_redu_face.avi,0,j,BA,1.525Test5,3,83,standard,AV,ba_base_face.avi,1,j,BA,1.593Test5,3,84,standard,AV,ba_base_face.avi,1,j,BA,1.536Test5,3,85,standard,AV,ba_base_face.avi,1,j,BA,1.908Test5,3,86,oddball,AV,ba_redu_face.avi,0,j,BA,1.49Test5,3,87,oddball,AV,ba_redu_face.avi,0,j,BA,1.426Test5,3,88,standard,AV,ba_base_face.avi,1,j,BA,0.859Test5,3,89,oddball,AV,ba_redu_face.avi,0,j,BA,0.6Test5,3,90,oddball,AV,ba_redu_face.avi,1,f,A,2.112Test5,3,91,oddball,AV,ba_redu_face.avi,1,f,A,1.291Test5,3,92,standard,AV,ba_base_face.avi,0,none,none,999Test5,3,93,oddball,AV,ba_redu_face.avi,0,j,BA,0.001Test5,3,94,oddball,AV,ba_redu_face.avi,0,none,none,999Test5,3,95,oddball,AV,ba_redu_face.avi,0,j,BA,-0.32Test5,3,96,oddball,AV,ba_redu_face.avi,0,none,none,999Test5,3,97,standard,AV,ba_base_face.avi,0,f,A,-0.365Test5,3,98,oddball,AV,ba_redu_face.avi,0,j,BA,0.532Test5,3,99,oddball,AV,ba_redu_face.avi,0,j,BA,1.298Test5,3,100,standard,AV,ba_base_face.avi,0,f,A,2.097