Subject,Trial,StimType,StimCategory,Stimulus,KEY,Rating,RTTest5,1,standard,PIX,ba_base_pix.avi,2,Medium,1.999Test5,2,oddball,PIX,ba_redu_pix.avi,2,Medium,1.581Test5,3,oddball,PL,ba_redu_pl.avi,2,Medium,1.885Test5,4,oddball,PL,ba_redu_pl.avi,1,Strong,2.076Test5,5,standard,PIX,ba_base_pix.avi,1,Strong,2.479Test5,6,standard,PL,ba_base_pl.avi,2,Medium,2.955Test5,7,standard,AV,ba_base_face.avi,1,Strong,1.77Test5,8,oddball,PL,ba_redu_pl.avi,2,Medium,2.818Test5,9,oddball,AV,ba_redu_face.avi,2,Medium,2.09Test5,10,oddball,PIX,ba_redu_pix.avi,3,Weak,2.214Test5,11,standard,PIX,ba_base_pix.avi,3,Weak,1.82Test5,12,standard,AV,ba_base_face.avi,1,Strong,1.73Test5,13,standard,PL,ba_base_pl.avi,1,Strong,1.562Test5,14,standard,PIX,ba_base_pix.avi,2,Medium,1.975Test5,15,oddball,PIX,ba_redu_pix.avi,2,Medium,1.663Test5,16,oddball,PL,ba_redu_pl.avi,2,Medium,0.001Test5,17,oddball,PL,ba_redu_pl.avi,2,Medium,1.395Test5,18,oddball,PIX,ba_redu_pix.avi,2,Medium,1.515Test5,19,oddball,PIX,ba_redu_pix.avi,3,Weak,1.766Test5,20,standard,PIX,ba_base_pix.avi,4,No B,1.777Test5,21,oddball,PL,ba_redu_pl.avi,4,No B,1.648Test5,22,standard,AV,ba_base_face.avi,3,Weak,1.625Test5,23,oddball,AV,ba_redu_face.avi,2,Medium,1.333Test5,24,oddball,AV,ba_redu_face.avi,2,Medium,1.696Test5,25,standard,AV,ba_base_face.avi,3,Weak,1.846Test5,26,standard,AV,ba_base_face.avi,3,Weak,1.989Test5,27,standard,PL,ba_base_pl.avi,3,Weak,1.659Test5,28,oddball,AV,ba_redu_face.avi,3,Weak,1.557Test5,29,oddball,PL,ba_redu_pl.avi,3,Weak,1.599Test5,30,standard,PIX,ba_base_pix.avi,3,Weak,1.514Test5,31,standard,PL,ba_base_pl.avi,3,Weak,1.552Test5,32,standard,PL,ba_base_pl.avi,3,Weak,1.462Test5,33,oddball,AV,ba_redu_face.avi,3,Weak,1.291Test5,34,oddball,PIX,ba_redu_pix.avi,3,Weak,1.304Test5,35,oddball,PL,ba_redu_pl.avi,3,Weak,1.527Test5,36,standard,AV,ba_base_face.avi,3,Weak,1.225Test5,37,standard,AV,ba_base_face.avi,2,Medium,1.774Test5,38,standard,PL,ba_base_pl.avi,1,Strong,1.499Test5,39,standard,PIX,ba_base_pix.avi,1,Strong,1.511Test5,40,oddball,AV,ba_redu_face.avi,3,Weak,1.71Test5,41,standard,PL,ba_base_pl.avi,2,Medium,1.532Test5,42,standard,PIX,ba_base_pix.avi,1,Strong,1.621Test5,43,standard,PL,ba_base_pl.avi,2,Medium,1.504Test5,44,oddball,PIX,ba_redu_pix.avi,3,Weak,1.653Test5,45,oddball,PIX,ba_redu_pix.avi,3,Weak,1.78Test5,46,standard,AV,ba_base_face.avi,2,Medium,1.53Test5,47,oddball,AV,ba_redu_face.avi,2,Medium,1.397Test5,48,oddball,AV,ba_redu_face.avi,2,Medium,1.61Test5,49,standard,AV,ba_base_face.avi,2,Medium,1.561Test5,50,oddball,PL,ba_redu_pl.avi,3,Weak,1.624Test5,51,oddball,PIX,ba_redu_pix.avi,3,Weak,1.477Test5,52,standard,PL,ba_base_pl.avi,4,No B,1.793Test5,53,standard,PIX,ba_base_pix.avi,2,Medium,1.996Test5,54,oddball,AV,ba_redu_face.avi,3,Weak,1.752Test2,1,oddball,PIX,ba_redu_pix.avi,2,Medium,2.359Test2,2,standard,PIX,ba_base_pix.avi,1,Strong,2.495Test2,3,oddball,AV,ba_redu_face.avi,2,Medium,2.98Test2,4,oddball,PIX,ba_redu_pix.avi,4,No B,2.26Test2,5,standard,PIX,ba_base_pix.avi,2,Medium,2.891Test2,6,standard,AV,ba_base_face.avi,2,Medium,1.995Test2,7,oddball,AV,ba_redu_face.avi,4,No B,2.156Test2,8,oddball,PIX,ba_redu_pix.avi,4,No B,1.851Test2,9,oddball,PL,ba_redu_pl.avi,4,No B,1.868Test2,10,standard,AV,ba_base_face.avi,2,Medium,2.169Test2,11,standard,PL,ba_base_pl.avi,1,Strong,1.742Test2,12,standard,PIX,ba_base_pix.avi,1,Strong,2.037Test2,13,oddball,AV,ba_redu_face.avi,4,No B,1.794Test2,14,oddball,PIX,ba_redu_pix.avi,4,No B,2.221Test2,15,standard,PIX,ba_base_pix.avi,2,Medium,2.196Test2,16,standard,PL,ba_base_pl.avi,3,Weak,1.956Test2,17,oddball,AV,ba_redu_face.avi,4,No B,1.963Test2,18,standard,AV,ba_base_face.avi,1,Strong,2.473Test2,19,oddball,PIX,ba_redu_pix.avi,4,No B,2.337Test2,20,standard,PIX,ba_base_pix.avi,2,Medium,2.162Test2,21,standard,AV,ba_base_face.avi,2,Medium,2.747Test2,22,standard,PL,ba_base_pl.avi,1,Strong,2.062Test2,23,standard,AV,ba_base_face.avi,2,Medium,1.668Test2,24,standard,AV,ba_base_face.avi,2,Medium,1.893Test2,25,standard,PL,ba_base_pl.avi,1,Strong,1.85Test2,26,oddball,PL,ba_redu_pl.avi,4,No B,1.931Test2,27,standard,PL,ba_base_pl.avi,2,Medium,2.055Test2,28,oddball,PIX,ba_redu_pix.avi,4,No B,2.02Test2,29,oddball,PL,ba_redu_pl.avi,4,No B,1.715Test2,30,oddball,AV,ba_redu_face.avi,3,Weak,1.891Test2,31,standard,AV,ba_base_face.avi,1,Strong,2.083Test2,32,oddball,PL,ba_redu_pl.avi,4,No B,1.96Test2,33,oddball,PL,ba_redu_pl.avi,4,No B,1.631Test2,34,standard,PIX,ba_base_pix.avi,2,Medium,2.146Test2,35,oddball,PIX,ba_redu_pix.avi,4,No B,2.168Test2,36,standard,AV,ba_base_face.avi,1,Strong,1.724Test2,37,oddball,AV,ba_redu_face.avi,4,No B,1.945Test2,38,oddball,PIX,ba_redu_pix.avi,4,No B,2.205Test2,39,oddball,AV,ba_redu_face.avi,4,No B,1.87Test2,40,oddball,PL,ba_redu_pl.avi,4,No B,1.575Test2,41,oddball,PL,ba_redu_pl.avi,2,Medium,1.696Test2,42,standard,PIX,ba_base_pix.avi,4,No B,1.81Test2,43,standard,AV,ba_base_face.avi,2,Medium,1.76Test2,44,standard,PL,ba_base_pl.avi,2,Medium,1.62Test2,45,oddball,AV,ba_redu_face.avi,2,Medium,1.697Test2,46,oddball,PIX,ba_redu_pix.avi,2,Medium,1.739Test2,47,standard,PL,ba_base_pl.avi,1,Strong,1.753Test2,48,oddball,AV,ba_redu_face.avi,2,Medium,1.836Test2,49,standard,PIX,ba_base_pix.avi,3,Weak,1.547Test2,50,oddball,PL,ba_redu_pl.avi,4,No B,1.527Test2,51,oddball,PL,ba_redu_pl.avi,4,No B,1.46Test2,52,standard,PIX,ba_base_pix.avi,2,Medium,1.882Test2,53,standard,PL,ba_base_pl.avi,1,Strong,1.866Test2,54,standard,PL,ba_base_pl.avi,1,Strong,1.632Test3,1,oddball,PL,ba_redu_pl.avi,2,Medium,4.057Test3,2,oddball,PL,ba_redu_pl.avi,1,Strong,2.531Test3,3,oddball,AV,ba_redu_face.avi,2,Medium,2.513Test3,4,oddball,AV,ba_redu_face.avi,2,Medium,2.81Test3,5,oddball,PL,ba_redu_pl.avi,4,No B,1.804Test3,6,oddball,PIX,ba_redu_pix.avi,2,Medium,2.206Test3,7,oddball,PIX,ba_redu_pix.avi,1,Strong,1.677Test3,8,standard,PIX,ba_base_pix.avi,1,Strong,1.871Test3,9,oddball,AV,ba_redu_face.avi,1,Strong,1.599Test3,10,standard,PIX,ba_base_pix.avi,1,Strong,1.581Test3,11,standard,AV,ba_base_face.avi,1,Strong,1.556Test3,12,standard,PL,ba_base_pl.avi,1,Strong,1.529Test3,13,oddball,AV,ba_redu_face.avi,2,Medium,1.887Test3,14,standard,PIX,ba_base_pix.avi,1,Strong,2.11Test3,15,standard,PL,ba_base_pl.avi,1,Strong,1.766Test3,16,oddball,AV,ba_redu_face.avi,1,Strong,1.599Test3,17,standard,AV,ba_base_face.avi,1,Strong,1.867Test3,18,standard,PL,ba_base_pl.avi,1,Strong,1.62Test3,19,oddball,PIX,ba_redu_pix.avi,3,Weak,2.243Test3,20,standard,AV,ba_base_face.avi,2,Medium,2.189Test3,21,oddball,PIX,ba_redu_pix.avi,4,No B,2.056Test3,22,standard,PL,ba_base_pl.avi,2,Medium,1.982Test3,23,oddball,PL,ba_redu_pl.avi,4,No B,1.928Test3,24,standard,AV,ba_base_face.avi,1,Strong,1.702Test3,25,oddball,AV,ba_redu_face.avi,4,No B,2.131Test3,26,standard,PL,ba_base_pl.avi,2,Medium,4.009Test3,27,oddball,AV,ba_redu_face.avi,3,Weak,2.953Test3,28,standard,AV,ba_base_face.avi,2,Medium,2.625Test3,29,standard,PL,ba_base_pl.avi,1,Strong,2.604Test3,30,oddball,PL,ba_redu_pl.avi,4,No B,2.153Test3,31,oddball,PIX,ba_redu_pix.avi,4,No B,2.593Test3,32,standard,AV,ba_base_face.avi,1,Strong,2.255Test3,33,standard,PIX,ba_base_pix.avi,1,Strong,1.925Test3,34,oddball,AV,ba_redu_face.avi,3,Weak,2.775Test3,35,standard,AV,ba_base_face.avi,2,Medium,3.147Test3,36,oddball,AV,ba_redu_face.avi,4,No B,2.27Test3,37,oddball,PIX,ba_redu_pix.avi,4,No B,2.469Test3,38,oddball,PIX,ba_redu_pix.avi,4,No B,2.311Test3,39,oddball,PL,ba_redu_pl.avi,4,No B,1.801Test3,40,standard,PL,ba_base_pl.avi,1,Strong,1.904Test3,41,oddball,PL,ba_redu_pl.avi,4,No B,1.874Test3,42,standard,PIX,ba_base_pix.avi,1,Strong,1.872Test3,43,standard,AV,ba_base_face.avi,2,Medium,2.058Test3,44,standard,PIX,ba_base_pix.avi,1,Strong,2.052Test3,45,standard,PL,ba_base_pl.avi,1,Strong,2.884Test3,46,standard,PIX,ba_base_pix.avi,1,Strong,5.583Test3,47,oddball,PIX,ba_redu_pix.avi,3,Weak,2.823Test3,48,oddball,PL,ba_redu_pl.avi,4,No B,1.808Test3,49,oddball,PIX,ba_redu_pix.avi,4,No B,1.673Test3,50,standard,PIX,ba_base_pix.avi,2,Medium,1.901Test3,51,standard,PIX,ba_base_pix.avi,1,Strong,2.182Test3,52,standard,AV,ba_base_face.avi,1,Strong,1.663Test3,53,oddball,PL,ba_redu_pl.avi,3,Weak,2.218Test3,54,standard,PL,ba_base_pl.avi,2,Medium,1.64Test1,1,oddball,AV,ba_redu_face.avi,2,Medium,2.097Test1,2,oddball,PIX,ba_redu_pix.avi,3,Weak,3.521Test1,3,standard,AV,ba_base_face.avi,1,Strong,2.826Test1,4,standard,AV,ba_base_face.avi,1,Strong,1.929Test1,5,standard,PIX,ba_base_pix.avi,1,Strong,1.948Test1,6,standard,AV,ba_base_face.avi,1,Strong,1.501Test1,7,standard,PIX,ba_base_pix.avi,1,Strong,1.604Test1,8,oddball,PIX,ba_redu_pix.avi,2,Medium,1.98Test1,9,oddball,AV,ba_redu_face.avi,2,Medium,2.194Test1,10,oddball,PL,ba_redu_pl.avi,2,Medium,2.208Test1,11,oddball,PL,ba_redu_pl.avi,3,Weak,1.867Test1,12,standard,PIX,ba_base_pix.avi,2,Medium,1.921Test1,13,oddball,AV,ba_redu_face.avi,1,Strong,1.807Test1,14,oddball,PIX,ba_redu_pix.avi,1,Strong,1.773Test1,15,oddball,AV,ba_redu_face.avi,1,Strong,1.706Test1,16,standard,PIX,ba_base_pix.avi,1,Strong,1.852Test1,17,oddball,PIX,ba_redu_pix.avi,2,Medium,2.283Test1,18,standard,PL,ba_base_pl.avi,2,Medium,1.882Test1,19,standard,AV,ba_base_face.avi,1,Strong,1.971Test1,20,standard,PIX,ba_base_pix.avi,1,Strong,1.804Test1,21,standard,PIX,ba_base_pix.avi,1,Strong,1.898Test1,22,oddball,PIX,ba_redu_pix.avi,3,Weak,2.053Test1,23,oddball,PL,ba_redu_pl.avi,3,Weak,1.674Test1,24,standard,PL,ba_base_pl.avi,2,Medium,2.25Test1,25,oddball,PIX,ba_redu_pix.avi,3,Weak,2.037Test1,26,standard,PL,ba_base_pl.avi,2,Medium,2.092Test1,27,oddball,PL,ba_redu_pl.avi,3,Weak,1.846Test1,28,standard,AV,ba_base_face.avi,1,Strong,1.849Test1,29,standard,PL,ba_base_pl.avi,2,Medium,2.178Test1,30,oddball,PL,ba_redu_pl.avi,3,Weak,1.845Test1,31,oddball,PIX,ba_redu_pix.avi,3,Weak,1.878Test1,32,standard,PIX,ba_base_pix.avi,2,Medium,2.016Test1,33,standard,AV,ba_base_face.avi,2,Medium,1.915Test1,34,standard,PIX,ba_base_pix.avi,1,Strong,2.226Test1,35,standard,PL,ba_base_pl.avi,1,Strong,1.927Test1,36,standard,AV,ba_base_face.avi,1,Strong,1.895Test1,37,oddball,AV,ba_redu_face.avi,2,Medium,2.094Test1,38,standard,PL,ba_base_pl.avi,2,Medium,1.925Test1,39,oddball,AV,ba_redu_face.avi,3,Weak,2.181Test1,40,oddball,AV,ba_redu_face.avi,2,Medium,1.871Test1,41,oddball,PL,ba_redu_pl.avi,2,Medium,1.952Test1,42,oddball,PL,ba_redu_pl.avi,3,Weak,1.872Test1,43,standard,PL,ba_base_pl.avi,1,Strong,1.842Test1,44,oddball,AV,ba_redu_face.avi,2,Medium,1.91Test1,45,standard,PL,ba_base_pl.avi,2,Medium,2.456Test1,46,standard,PIX,ba_base_pix.avi,1,Strong,1.936Test1,47,oddball,PIX,ba_redu_pix.avi,2,Medium,2.008Test1,48,standard,PL,ba_base_pl.avi,1,Strong,1.986Test1,49,oddball,PL,ba_redu_pl.avi,2,Medium,2.309Test1,50,standard,AV,ba_base_face.avi,1,Strong,1.896Test1,51,oddball,AV,ba_redu_face.avi,1,Strong,1.938Test1,52,standard,AV,ba_base_face.avi,1,Strong,1.857Test1,53,oddball,PL,ba_redu_pl.avi,2,Medium,1.934Test1,54,oddball,PIX,ba_redu_pix.avi,1,Strong,2.136Test4,1,oddball,PIX,ba_redu_pix.avi,2,Medium,2.755Test4,2,standard,PIX,ba_base_pix.avi,2,Medium,2.457Test4,3,oddball,AV,ba_redu_face.avi,2,Medium,4.725Test4,4,oddball,PIX,ba_redu_pix.avi,2,Medium,3.86Test4,5,standard,PL,ba_base_pl.avi,2,Medium,2.159Test4,6,oddball,AV,ba_redu_face.avi,2,Medium,2.486Test4,7,oddball,PL,ba_redu_pl.avi,2,Medium,2.002Test4,8,standard,PIX,ba_base_pix.avi,2,Medium,2.181Test4,9,oddball,PL,ba_redu_pl.avi,2,Medium,2.473Test4,10,oddball,PL,ba_redu_pl.avi,2,Medium,1.722Test4,11,oddball,PL,ba_redu_pl.avi,2,Medium,2.174Test4,12,oddball,AV,ba_redu_face.avi,2,Medium,1.587Test4,13,standard,PL,ba_base_pl.avi,2,Medium,1.69Test4,14,standard,PL,ba_base_pl.avi,2,Medium,1.49Test4,15,oddball,PIX,ba_redu_pix.avi,4,No B,3.169Test4,16,standard,PIX,ba_base_pix.avi,2,Medium,1.735Test4,17,standard,AV,ba_base_face.avi,2,Medium,1.615Test4,18,oddball,PL,ba_redu_pl.avi,2,Medium,1.683Test4,19,standard,AV,ba_base_face.avi,2,Medium,1.683Test4,20,standard,PL,ba_base_pl.avi,2,Medium,1.499Test4,21,oddball,PL,ba_redu_pl.avi,2,Medium,1.862Test4,22,oddball,AV,ba_redu_face.avi,2,Medium,1.785Test4,23,oddball,AV,ba_redu_face.avi,2,Medium,1.497Test4,24,standard,AV,ba_base_face.avi,2,Medium,1.494Test4,25,standard,PL,ba_base_pl.avi,2,Medium,1.465Test4,26,oddball,AV,ba_redu_face.avi,2,Medium,1.354Test4,27,oddball,PIX,ba_redu_pix.avi,2,Medium,1.474Test4,28,oddball,AV,ba_redu_face.avi,2,Medium,1.947Test4,29,standard,AV,ba_base_face.avi,2,Medium,1.993Test4,30,oddball,PL,ba_redu_pl.avi,2,Medium,1.498Test4,31,oddball,AV,ba_redu_face.avi,2,Medium,1.429Test4,32,standard,PL,ba_base_pl.avi,2,Medium,1.436Test4,33,oddball,AV,ba_redu_face.avi,2,Medium,1.388Test4,34,oddball,PIX,ba_redu_pix.avi,2,Medium,1.478Test4,35,oddball,PIX,ba_redu_pix.avi,2,Medium,1.941Test4,36,standard,AV,ba_base_face.avi,2,Medium,1.23Test4,37,standard,AV,ba_base_face.avi,2,Medium,1.296Test4,38,standard,PIX,ba_base_pix.avi,2,Medium,1.453Test4,39,oddball,PIX,ba_redu_pix.avi,2,Medium,1.304Test4,40,oddball,PL,ba_redu_pl.avi,4,No B,2.121Test4,41,standard,PIX,ba_base_pix.avi,2,Medium,1.707Test4,42,oddball,PIX,ba_redu_pix.avi,4,No B,2.189Test4,43,standard,PIX,ba_base_pix.avi,2,Medium,1.896Test4,44,standard,PL,ba_base_pl.avi,2,Medium,1.681Test4,45,standard,PL,ba_base_pl.avi,2,Medium,1.435Test4,46,standard,PIX,ba_base_pix.avi,2,Medium,1.514Test4,47,standard,AV,ba_base_face.avi,2,Medium,1.331Test4,48,standard,PIX,ba_base_pix.avi,2,Medium,1.406Test4,49,standard,AV,ba_base_face.avi,2,Medium,1.269Test4,50,standard,PL,ba_base_pl.avi,2,Medium,1.87Test4,51,oddball,PIX,ba_redu_pix.avi,4,No B,1.885Test4,52,standard,PIX,ba_base_pix.avi,2,Medium,1.605Test4,53,standard,AV,ba_base_face.avi,2,Medium,1.532Test4,54,oddball,PL,ba_redu_pl.avi,4,No B,2.406